Time (s),Gyroscope x (rad/s),Gyroscope y (rad/s),Gyroscope z (rad/s),Absolute (rad/s)
0.0387750417,-0.0001816881122,0.001257961965,-0.0001217371318,0.001276831549
0.04876904166,-0.002242974937,-0.002332245233,-0.0005723440554,0.003286013103
0.05876404175,0.0001117202919,-0.0002093242947,0.0008428841829,0.000875643666
0.06875904172,0.0007423569914,-0.001923867501,0.001562470337,0.002587213486
0.07875404169,0.0009306634311,0.001750787254,-0.001505209133,0.002489386464
0.08874904166,-0.0004493865417,0.000002422137186,-0.0002908076858,0.0005352786571
0.09874304174,0.0005955427187,-0.001289574895,-0.001276233234,0.001909566916
0.1087380417,-0.001045497134,-0.0007441595662,0.0002960971324,0.001317008439
0.1187330417,-0.0008158203564,0.000186661724,-0.0005579945864,0.00100586451
0.1287280417,-0.000993453199,-0.001274082111,-0.001960947877,0.002540777649
0.1387230417,-0.0005069843028,0.0007603202248,0.002650552895,0.002803667344
0.1487170417,0.0001755838748,0.002042898443,-0.000628863927,0.002144698949
0.1587120417,-0.002402215265,-0.00007725716569,-0.0008144582389,0.002537705474
0.1687070417,0.001047377125,-0.001320420764,-0.001055208035,0.001988460167
0.1787020417,-0.000683769118,-0.00005789729767,0.001679109992,0.001813919146
0.1886970417,0.0008550054627,-0.0002230133396,-0.001751041389,0.001961355459
0.1986910417,0.001129070297,-0.0001280806027,-0.003182118759,0.003378917603
0.2086860416,0.0008268014062,0.0006463666214,0.0001878452022,0.001066150174
0.2186810417,-0.000120949815,0.001533278031,-0.0009152628481,0.001789769946
0.2286760417,0.0005182088353,0.002640354214,-0.001760550193,0.003215516717
0.2386710417,-0.002040944295,-0.00009270082228,0.001162608271,0.002350681826
0.2486650416,0.001391870202,0.0000324677676,-0.0002648460213,0.001417215662
0.2586600417,-0.0007204120629,-0.0001768872607,-0.001229093643,0.001435602252
0.2686550417,0.0002306028036,-0.001845357707,0.0006332548801,0.001964569791
0.2786499166,0.0001101259841,-0.001005412545,0.0002442274708,0.001040494678
0.2886449167,0.0006123981439,-0.000969193643,0.000740907155,0.001365031581
0.2986389167,-0.000119691249,0.001328961109,0.001264751656,0.001838494051
0.3086339167,0.001120542875,-0.0003869135398,-0.001047404832,0.001581889789
0.3186289167,-0.0005330172135,0.001515629003,-0.0004677270772,0.001673322217
0.3286239167,0.0007828506641,-0.001215975266,-0.001795579214,0.002305548898
0.3386189167,0.0009578559548,0.001263249549,0.00007736566477,0.001587221755
0.3486129167,0.0008910107426,-0.001094713109,-0.0006709826412,0.001562854644
0.3586079167,-0.00304928259,-0.001433568075,-0.0004165179562,0.003395103673
0.3686029167,0.001661583083,-0.001986440504,-0.0001808281522,0.002596055284
0.3785979167,0.0005651086103,-0.001068917569,0.0002235497814,0.001229596281
0.3885929167,0.001715594204,-0.0006516000722,-0.0008720747428,0.002031836727
0.3985869167,0.0001621386036,-0.000462342985,-0.0006482487079,0.0008125739042
0.4085819167,0.00116348709,-0.00227489043,0.0004673495423,0.002597545817
0.4185769167,0.0001349691302,-0.00150311552,0.0009807175957,0.001799827751
0.4285719167,0.00111048494,-0.0006642199587,-0.00249257707,0.00280843469
0.4385669167,-0.003132981714,-0.001019836171,0.0008893024642,0.00341269675
0.4485609167,0.001376815373,-0.002207339508,-0.0005597233539,0.002661063417
0.4585559167,-0.0008619142463,0.0009474176913,-0.001182794687,0.001743416107
0.4685509166,-0.0002461913973,-0.0004526060075,-0.0002328450792,0.0005654018332
0.4785459167,0.0004312114324,0.0007686313475,0.00001850386616,0.0008815213218
0.4885409167,-0.00152195082,-0.001669758931,-0.0001668521436,0.002265451131
0.4985349167,0.0003068278311,-0.0005143578164,-0.000874390942,0.001059842819
0.5085299166,0.00171217788,0.002636960708,-0.0009649383719,0.003288802355
0.5185249167,0.001740517677,-0.0008553499356,0.0002413816983,0.001954300494
0.5285199167,-0.001113325823,0.002046962967,0.0005537705729,0.002395039379
0.5385149167,0.0007670168998,0.001227129134,-0.001628812402,0.002178804874
0.5485089167,0.0004772649845,-0.0003899422009,-0.001824821113,0.001926086415
0.5585039167,0.000135469716,-0.001177367521,-0.001590815722,0.001983744184
0.5684989167,0.001228697365,-0.002230115235,-0.0009777561063,0.002727474689
0.5784939167,0.00112796668,0.00009552319534,0.001772566931,0.002103194484
0.5884889168,0.0001607064623,0.002209540457,-0.000603239052,0.002296038534
0.5984829167,0.000222291681,0.00127780647,-0.0009189764969,0.00158956622
0.6084779167,0.001956542023,0.001912171487,0.0008488297462,0.002864431605
0.6184729167,0.0001056524925,-0.0001593448687,-0.0006019924767,0.0006316234467
0.6284679167,-0.001127391122,-0.0008658815641,-0.0002706953092,0.001447078981
0.6384629167,0.0006620986387,0.00254778564,0.0002614815021,0.002645365542
0.6484569167,0.0003086971119,0.003006914631,0.001149113057,0.003233773387
0.6584519166,-0.0007937690243,-0.0003482047468,-0.0008822354721,0.001236792318
0.6684469167,-0.0004606075818,0.0006347680464,-0.002007687232,0.002155434489
0.6784419167,-0.0001189871691,-0.0008432830218,0.0004520713119,0.0009641849783
0.6884369167,0.0007585245185,0.0003317038063,0.00142625568,0.00164911859
0.6984309166,-0.0001345186029,0.0006110896356,-0.0004469681298,0.0007689644377
0.7084259167,-0.002115377691,0.000413749367,0.0007429321995,0.002279903412
0.7184209167,0.0001452647848,-0.001731061842,0.0002457473893,0.001754442572
0.7284159167,-0.0004845728399,0.001427447307,0.002195714042,0.002663376955
0.7384109166,-0.0005835331976,0.002936330391,-0.00006280618254,0.002994410088
0.7484049167,-0.0006836680695,-0.001605957048,0.0006469262298,0.001861454704
0.7583999167,0.0007484210655,-0.0002378474455,-0.0008044071728,0.001124178099
0.7683949167,0.00004827615339,0.0005150281359,-0.000548477401,0.0007539310493
0.7783899166,0.000977955875,0.001272203168,0.0005644344492,0.001701024645
0.7883849167,-0.004373133648,0.001044236589,-0.0007727386546,0.004562000985
0.7983789167,0.00234858389,0.0002759755589,0.001424162416,0.002760479557
0.8083739167,0.000001540174708,0.001536183292,-0.0004605567083,0.001603737497
0.8183689167,-0.0006669515278,0.001584540354,-0.001025575912,0.002001848752
0.8283639167,-0.002494945191,0.0001975661144,-0.0002213013358,0.00251252028
0.8383589167,0.00182235695,-0.001055779168,-0.0004551387392,0.002154717099
0.8483529167,0.0007086229743,0.001204179367,-0.001601629541,0.002125420348
0.8583479167,0.000908844755,0.0007223782595,-0.0007022325299,0.001356819688
0.8683429167,-0.00117454608,-0.0004709842615,0.00005703466013,0.001266742918
0.8783379167,-0.0006233513122,0.001175431185,0.0007447615499,0.00152475411
0.8883329167,-0.002169582527,-0.00206217356,0.0008313142462,0.003106562652
0.8983269167,-0.0003545930376,-0.0002195339184,-0.001017199713,0.001099375559
0.9083219167,-0.0008544683806,-0.0007401818875,-0.001631857245,0.001985180976
0.9183169167,0.001401117188,-0.000356990844,-0.001201827778,0.001880149421
0.9283119167,-0.002180035459,-0.001524787163,-0.0007155346102,0.002754908397
0.9383069167,0.0004051264841,-0.0002949314658,-0.00164638483,0.001720957595
0.9483009167,0.001196351601,-0.0006424740423,0.003282593563,0.003552386599
0.9582959167,0.001231356058,0.0008741195779,0.000350193237,0.001550147761
0.9682909166,-0.001707175747,0.0003047357313,0.0008612537058,0.001936251751
0.9782859167,0.0005103240255,-0.0005208577495,-0.001318636001,0.001506825906
0.9882809167,0.001706349663,-0.001835660543,-0.0005199540174,0.002559615398
0.9982759167,0.000742335571,-0.0008737044409,-0.0008596513071,0.001432976594
1.008269917,0.0008733631112,0.002926360117,-0.001732635545,0.003511178234
1.018264917,0.0002121099969,-0.003064191202,0.00013413548,0.003074451284
1.028259917,-0.0009421040886,0.0009798191022,0.0008284214418,0.001591818982
1.038254917,-0.001318827737,0.000615005265,0.0004544442054,0.001524486016
1.048248917,0.0005448524607,0.0003159323242,-0.00034769997,0.0007194252613
1.058243917,0.002608195879,-0.002320225351,0.001992909936,0.00401967927
1.068238917,0.001043588505,0.00003028055653,0.0002562627196,0.001075018354
1.078233917,0.0005402854877,0.00119607395,0.0001362952171,0.00131949903
1.088228917,-0.0009843742009,-0.002546466421,-0.0001228303881,0.002732868659
1.098223917,0.0007470333949,-0.0007503111847,0.0005416959757,0.00118931085
1.108217917,0.001175269717,-0.0002850568853,0.00104050606,0.001595358642
1.118212917,0.001856813324,-0.0002862922847,0.0007019449258,0.002005603568
1.128207917,-0.002940338803,-0.000583501067,0.001631388091,0.003412842346
1.138202917,-0.001376190223,0.003849102184,-0.002320104279,0.004700252229
1.148197917,-0.002128266962,0.001673565828,-0.001796793193,0.003249432046
1.158191917,0.000764605822,0.0009936658898,-0.001571868081,0.002010662385
1.168186917,0.0006205288228,-0.002137945034,-0.0006474849069,0.002318426555
1.178181917,-0.0003560018959,0.002079206286,-0.0007988610305,0.002255662891
1.188176917,-0.0007608023589,-0.000178621849,0.001092516002,0.001343248752
1.198171917,0.000915398472,-0.0003249677829,-0.00007264385931,0.0009740819025
1.208165917,0.0001883554505,-0.0009260433726,0.0001305552432,0.00095398049
1.218160917,0.00001904868986,-0.001808615169,-0.0001095884945,0.001812032372
1.228155917,-0.001780981896,-0.0003585240338,-0.001557815471,0.002393162142
1.238150917,-0.001631514286,-0.001070767874,-0.0006226822734,0.002048442315
1.248145917,0.001450029435,0.002329289913,0.0002281976631,0.002753225569
1.258139917,-0.001077696914,-0.0001626079902,-0.001090445207,0.001541733682
1.268134917,-0.0003378706751,0.003694181796,-0.0005394372274,0.003748616846
1.27813025,-0.00009683473036,-0.00199565175,-0.002305981237,0.003051155902
1.28812525,0.0007673611399,0.0006006639451,0.00055798213,0.001122935595
1.29812025,-0.0001874559093,-0.0003109422978,0.001304646721,0.00135422594
1.30811425,0.0005521038547,-0.00003903359175,0.0002481705742,0.0006065730966
1.31810925,0.001382781309,0.0006273471517,0.0008668774972,0.001748463666
1.32810425,0.001870406209,-0.00105736847,0.0009355869843,0.002343452683
1.33809925,-0.001277056639,0.00156758388,0.001160893589,0.002331494544
1.34809425,0.0008793049492,0.0007577165961,-0.001640219241,0.002009385676
1.35808825,0.002612905111,0.001944387448,0.000647470355,0.003320712804
1.36808325,0.00008263566997,-0.0007155777421,0.001242420636,0.0014361369
1.37807825,0.001648123376,0.001773765776,-0.0001625998411,0.002426725036
1.38807325,0.001121616457,0.000815826701,-0.00001372909173,0.001387005829
1.39806825,0.001093872939,-0.001905301353,0.001558040851,0.002693366396
1.40806225,0.001965791918,-0.0006682630628,-0.0003908603685,0.002112743528
1.41805725,-0.002341184998,-0.002272346755,-0.0005808396963,0.003313922408
1.42805225,0.001101217,0.001754618948,0.002018139232,0.002892101743
1.43804725,0.001960903406,-0.001265576808,0.0003189881099,0.002355542451
1.44804225,0.0008255977882,0.0006867864868,-0.0007737068809,0.001323597266
1.45803625,-0.0008207170176,0.0008723502979,0.001035251655,0.001583135324
1.46803125,0.0007297754055,0.002733899979,0.001722613582,0.00331272981
1.47802625,0.0008835578337,-0.0003267487045,0.000331819756,0.0009987710007
1.48802125,0.0003772908822,-0.0005991901271,0.0006567253731,0.0009657460504
1.49801625,0.0003772702767,-0.001232198207,-0.0002031924669,0.001304581335
1.50801025,-0.0007622962585,-0.0006447050255,0.003193669487,0.003346082029
1.51800525,-0.002134163864,-0.001204567496,-0.001607938786,0.002931058749
1.52800025,0.001965772361,0.000224218471,0.0005399006186,0.002050860203
1.53799525,0.0007487486582,-0.0007555382326,-0.000554777449,0.001199683538
1.54799025,0.001949834172,0.000618386548,0.002163511235,0.002977421046
1.55798525,-0.001121895504,0.001523720799,-0.0007884756778,0.002049894751
1.56797925,0.001256573712,-0.0006752512418,0.0005582848098,0.001531869336
1.57797425,-0.0005359357456,0.000896216603,-0.0002367338166,0.001070735365
1.58796925,0.00115144311,0.0003659811337,-0.001915324247,0.002264559647
1.59796425,0.001878259238,0.001699862536,-0.00190337305,0.00316863052
1.60795925,0.001479850151,0.001706254086,-0.0007717959234,0.00238682392
1.61795325,-0.001429341035,0.0003080163151,0.0005845869891,0.001574684664
1.62794825,0.003907633945,0.0005511628697,-0.001034348505,0.004079615226
1.63794325,0.000759849092,-0.00108867907,0.001198421,0.00178852052
1.64793825,-0.001923551899,-0.0002250159159,0.000438354793,0.001985658328
1.65793325,0.001143909409,0.001607061597,-0.0003725804854,0.00200748398
1.66792725,0.001218211721,-0.001999124885,0.002196837217,0.003210394658
1.67792225,0.000673320028,-0.00007452396676,-0.0002139866119,0.0007104251909
1.68791725,0.000103137223,0.001715919119,-0.0008528789622,0.001918962802
1.69791225,0.0004370532697,0.0007807083894,0.0008653635159,0.001244738995
1.70790725,0.001670629368,-0.00006617698818,0.0005745461676,0.001767904177
1.71790125,-0.0001724994509,0.0000853354577,-0.002625788096,0.002632831428
1.72789625,0.0009617407341,0.0008427385474,-0.001586888917,0.002037981828
1.73789125,0.0008944659494,-0.001256339485,0.0008056763327,0.001739992123
1.74788625,0.0002089682966,-0.00120387529,0.001082911273,0.001632691118
1.75788125,-0.001983361086,-0.0002931887284,-0.0006823469885,0.002117847549
1.76787525,0.0009437191766,-0.001214908669,-0.0004674298689,0.001607824505
1.77787025,-0.0001891086577,0.0003420556895,0.001871208544,0.001911592424
1.78786525,0.00008812639862,-0.001211366151,-0.001193024567,0.001702492828
1.79786025,-0.001127053285,-0.0002024504356,0.00100575469,0.0015240662
1.80785525,0.0008836333873,0.00160956441,0.0001665925374,0.001843707847
1.81784925,0.0006503061159,-0.0004602607805,-0.00052055181,0.000951689139
1.82784425,0.001277746982,-0.000958005432,0.001074149041,0.001924631892
1.83783925,0.003752572462,0.0008182736346,-0.001319004921,0.00406092918
1.84783425,0.001612722524,0.001636662986,0.0006751699839,0.002394868301
1.85782925,-0.002240914851,-0.0006600304041,-0.00169462245,0.002886015376
1.86782325,-0.0002704419894,0.0005490446929,-0.00008846994024,0.0006183978289
1.87781825,0.001397595974,-0.0006597375032,0.0007646522718,0.001724303098
1.88781325,0.0009195585735,0.002590117976,-0.0001709160861,0.002753817606
1.89780825,-0.0009213940939,0.0006504801568,-0.003599232296,0.003771811849
1.90780325,0.0009984788485,-0.001217460958,0.003062398871,0.003443465993
1.91779725,-0.001103171613,-0.002468969906,0.0004925841931,0.002748715917
1.92779225,-0.001964704134,-0.001370682148,-0.002708802,0.003616136081
1.93778725,0.001655586995,0.001630378305,0.002286229283,0.003259746317
1.94778225,0.0003583612852,0.0004926759284,0.00003079790622,0.0006100007313
1.95777725,-0.001532274066,-0.0006100812461,-0.0006621607463,0.001777222494
1.96777125,-0.0009972450789,0.0004767547362,-0.0006088975351,0.001261962374
1.97776625,0.0007556769997,-0.0009519078303,-0.0003515866119,0.00126522306
1.98776125,-0.0002326220274,-0.00008185300976,-0.001838429482,0.001854895114
1.99775625,-0.004541990347,0.0001876687165,-0.001574864495,0.00481093484
2.00775125,0.0001904470846,-0.001219013007,0.00143770338,0.001894532611
2.01774625,-0.0001556494972,0.0004159428645,0.001210368238,0.001289273635
2.02774025,0.0004353059921,-0.0004666286986,-0.0005955213564,0.0008728569958
2.03773525,-0.000511631486,-0.0003618590999,-0.0003703141119,0.0007279020038
2.04773025,-0.0006232179003,0.001321791322,0.003023352008,0.003358003904
2.05772525,0.0006668616552,0.0004804295022,0.0001529015135,0.0008359999082
2.06772025,-0.0002114489907,0.001046351274,-0.001668434357,0.001980715746
2.07771425,0.0008795720059,-0.0009539024904,0.0006586132804,0.001455111105
2.08770925,-0.0009212574223,0.001129488461,-0.001391221886,0.002014933685
2.09770425,-0.0006966546644,-0.003365077078,-0.0009255773039,0.003558899382
2.10769925,-0.0004606986186,0.00235752319,-0.0004198430106,0.002438529672
2.11769425,-0.00160029321,-0.0006011340301,0.002540696412,0.003062260397
2.12768825,-0.0007787080249,0.0001916890033,-0.001098512905,0.001360096123
2.13768325,0.002038809936,0.0006498951698,-0.002852276899,0.003565752823
2.14767825,-0.000409433851,-0.0005740935449,0.002183760516,0.002294783099
2.15767325,0.000209862832,-0.0002428148873,-0.0003130381228,0.0004483239276
2.16766825,0.0006548769306,-0.0002622560132,0.001537060016,0.001691211253
2.17766225,0.002538225148,0.0002539225388,0.001438877895,0.002928725517
2.18765725,-0.0009944577469,-0.001449435251,0.0001208796166,0.001761936616
2.19765225,-0.002044909867,0.001908502425,-0.001144763432,0.00302233704
2.20764725,0.0007388924714,-0.001232962357,-0.0004257099936,0.001499128833
2.21764225,-0.00184426154,0.001004728838,0.0009113358101,0.00228939154
2.22763625,-0.001311629312,0.0003155027516,-0.002041577362,0.00244702913
2.23763125,0.002168821171,0.001357776229,-0.003199520521,0.004096861375
2.24762625,-0.0006160464836,-0.000110957073,0.002114551142,0.002205255376
2.25762125,-0.0006525830831,0.002846371382,0.002023354406,0.003552697254
2.26761625,-0.002094951225,0.0003829472698,-0.001538623474,0.002627324008
2.27761325,0.001585290069,-0.0006425760221,0.002230807673,0.002811147705
2.28760825,0.0004177603405,0.0003204229288,-0.0003050543601,0.0006084839505
2.29760325,0.0001910794526,-0.001332805026,-0.0009511541575,0.001648506848
2.30759825,-0.001316802343,0.0005777466577,-0.0006912296521,0.001595480506
2.31759325,0.00128374272,0.001112077734,0.001358949929,0.002175191294
2.32758825,-0.000324007473,0.00161834457,0.0007070082938,0.001795516838
2.33758225,0.0008476886433,-0.0001020210329,-0.002173682675,0.002335354512
2.34757725,0.0002354278695,0.001509723952,0.001088956022,0.001876304322
2.35757225,0.000003195600584,-0.002224306809,-0.0004432774149,0.00226804891
2.36756725,-0.00137605553,-0.0007912595756,-0.003094454296,0.003477825172
2.37756225,0.00115110958,-0.001265988452,-0.001581609831,0.00233007933
2.38755625,-0.001178623643,-0.0002707652748,-0.0004505653633,0.001290533483
2.39755125,0.001883452525,-0.002087990055,-0.0014123976,0.003146738449
2.40754625,-0.002058025682,0.001683578826,-0.001779647544,0.00319953946
2.41754125,-0.001284928061,0.001764534041,0.0004518936621,0.002229086895
2.42753625,0.0008051206823,0.00006144260988,0.0005554907257,0.0009800839014
2.43753025,-0.001405387418,0.0006730415625,-0.0008020610549,0.001752541205
2.44752525,-0.0002913872013,-0.0003354975488,0.000951630529,0.00105026938
2.45752025,0.001680321293,0.0004702181323,0.0006463800091,0.001860750347
2.46751525,0.001065930119,-0.001707714982,-0.0004551034654,0.002063883873
2.47751025,0.00193533767,0.0003535712603,0.0003902995959,0.002005711422
2.48750425,-0.0008098488906,-0.0005593602546,0.00153599144,0.001824283098
2.49749925,-0.001909586485,0.0006411481882,-0.001972770784,0.002819470891
2.50749425,0.001377819572,-0.0001032052096,-0.001501391176,0.00204039544
2.51748925,0.0001511388691,0.003412313061,0.0002061434789,0.003421873539
2.52748425,-0.001885114121,-0.002095636446,-0.000906525238,0.002960934881
2.53747825,0.00008389609866,-0.0006162042264,-0.002818081062,0.002885884107
2.54747325,0.0009331782348,0.00009512621909,-0.0002340159845,0.0009667647576
2.55746825,-0.0003297971562,-0.0008894067723,0.003250208683,0.003385803753
2.56746325,0.0004316004924,0.0001343123149,-0.001354396809,0.001427833849
2.57745825,-0.001168683288,0.0007885964587,-0.0003051996464,0.001442515797
2.58745225,-0.001165753813,-0.0008548402693,0.002759033348,0.003114803181
2.59744725,0.000723100733,-0.001747873845,0.0007679162081,0.002041478129
2.60744225,0.002571600955,0.0002585516777,-0.002186328406,0.003385263998
2.61743725,0.001339023584,0.0003734817728,0.002205987927,0.00260746151
2.62743225,0.0003613772569,0.00196605199,0.0009753413033,0.002224240232
2.63742725,-0.001159272389,0.0003668204881,-0.001779868966,0.002155551734
2.64742125,-0.0009859006386,-0.0005636878777,-0.002841937589,0.003060449861
2.65741625,0.001356362482,-0.0005319742486,0.0001212620409,0.001461991883
2.66741125,-0.001095077256,0.001087227603,0.0004714677343,0.001613548847
2.67740625,-0.002206793055,-0.001000161516,-0.001433545025,0.002815192708
2.68740125,0.001167165698,0.001708806027,-0.0008500465192,0.002237157323
2.69739525,0.0006516441936,0.001453403151,0.0006399555132,0.001716555834
2.70739025,-0.001522027887,-0.0001484882087,-0.001897770679,0.002437242538
2.71738525,0.0005219737068,-0.0005899989046,-0.003606913146,0.003691934141
2.72738025,0.001792301657,-0.002449684544,0.000499681104,0.003076195832
2.73737525,-0.0008797153714,-0.001327023609,-0.0004721685546,0.001660672736
2.74736925,-0.003215307603,0.00351034198,0.00104237115,0.004873114139
2.75736425,0.0008721451741,0.0008619169239,-0.0007178338128,0.001420853043
2.76735925,-0.0006927283248,0.0007037251489,-0.001070702681,0.001456538997
2.77735425,0.0006472561508,-0.00005454313941,-0.002918935381,0.002990334302
2.78734925,0.0007798816077,-0.0006060837768,0.001490992843,0.001788466529
2.79734325,-0.0006923358887,-0.0005486095324,0.002271683421,0.002437385273
2.80733825,0.00173247233,0.0001603239216,-0.001125977491,0.002072435631
2.81733325,-0.0007893373258,-0.0007987080608,0.0006858623819,0.001315824908
2.82732825,-0.003692981787,-0.001277544536,0.001158573548,0.004075846806
2.83732325,-0.0007243967848,0.001296522096,-0.001705357805,0.002261407856
2.84731825,-0.002216565888,-0.001289939974,-0.001860620105,0.003168440728
2.85731225,-0.0006118795136,-0.000291011529,0.001185179921,0.001365187055
2.86730725,-0.002393001691,0.0003918230068,0.0008219247684,0.002560379402
2.87730225,-0.0007852687268,-0.001728624804,0.00175964518,0.002588656378
2.88729725,-0.0009642331279,0.001277285279,-0.0009823455475,0.001877819476
2.89729225,-0.0001242252765,0.0005714831641,0.0002311486751,0.0006288518396
2.90728625,0.001485123066,0.003882857505,0.000653259689,0.0042081969
2.91728125,0.0005535384407,-0.002033368917,-0.0005175328697,0.002169984846
2.92727625,0.003257711884,0.0008572262013,-0.0004978254437,0.003405195097
2.93727125,0.0004148660228,-0.001189137576,-0.000779588474,0.001481188773
2.94726625,-0.001025105128,-0.0006913929246,-0.0002456246875,0.001260633248
2.95726025,-0.001119248336,0.001740646665,-0.0009707857389,0.002285824272
2.96725525,-0.0003764926223,-0.0002527292818,0.001084109419,0.001175122129
2.97725025,-0.001657080953,-0.0008418494835,-0.001796265948,0.002584801577
2.98724525,0.0002318992047,-0.0004261301365,-0.001250584261,0.001341389253
2.99724025,0.0004705857718,-0.0006865828764,0.002872772515,0.002990931115
3.00723425,0.002432270441,0.0001706888434,-0.0006047831266,0.002512137896
3.01722925,0.0005600479199,-0.001430920092,-0.0007994938642,0.001732159468
3.02722425,-0.003031491069,0.001353947446,0.001283364487,0.003559513477
3.03721925,0.001013446948,0.0001325630583,-0.0003390659112,0.00107685346
3.04721425,0.002299487125,-0.0007489433046,-0.0004485218087,0.002459619671
3.05720925,-0.0006709195441,0.001461635809,0.0004749974469,0.001676942112
3.06720325,0.001388769364,-0.001703797607,0.0009828621987,0.002407825727
3.07719825,-0.0002548823832,-0.003398841713,-0.001952065155,0.003927804525
3.08719325,0.000129944412,-0.001769785769,-0.0008942575078,0.00198713958
3.09718825,0.0006714838091,0.0007086317055,0.0006465901388,0.001170951838
3.10718325,0.002743689343,-0.00173029094,0.0006095723948,0.003300502455
3.11717725,0.000009052222595,-0.001179072773,0.0001813452691,0.001192971355
3.12717225,-0.00129855983,-0.001289593987,0.0008727018721,0.002027540096
3.13716725,0.0005300362827,-0.001370607177,-0.0008702805499,0.001707890725
3.14716225,0.003795337863,0.0005790931173,-0.0008060983382,0.003922975002
3.15715725,-0.00141398143,0.0006825398887,0.001542021055,0.002200689237
3.16715125,0.001429742086,0.000477742753,-0.0004657360259,0.001577754929
3.17714625,0.0004283207236,0.002810047939,0.0008281271439,0.00296067942
3.18714125,0.001054696157,0.0004350409145,0.001082192641,0.001572509298
3.19713625,-0.001198844402,-0.0002286322415,0.0002181620803,0.001239796473
3.20713125,-0.0004643445136,0.0006137256278,-0.0001592078479,0.0007858893766
3.21712625,-0.001458313433,-0.00212380616,-0.0006458243006,0.002655996931
3.22712025,-0.001332345884,0.0005934170913,0.001714535407,0.002250982244
3.23711525,0.0001199520193,0.001711605,0.00009279453661,0.001718310505
3.24711025,0.0007489908021,-0.0007179968525,-0.00002012355253,0.001037743542
3.25710525,-0.0007389299572,-0.0001280645374,0.001733107492,0.001888406627
3.26710025,-0.001146659954,0.001970772631,-0.00009035877883,0.002281871715
3.277090917,-0.00130454544,0.0002272806596,0.001153381541,0.001756070694
3.287085917,-0.00002676085569,0.0002336723264,-0.000450906693,0.0005085624301
3.297080917,-0.001259772107,-0.001380565343,-0.002195106819,0.002882963818
3.307075917,-0.001232607756,0.0000008163042367,0.0001503392123,0.001241742495
3.317070917,0.00295239035,-0.0002112893853,-0.001503723441,0.003320005448
3.327064917,-0.00008041784167,-0.001383612864,-0.002002000809,0.002434924809
3.337059917,0.0001454174053,-0.001209080685,-0.000001056934707,0.001217794499
3.347054917,0.0004628661554,0.0003475369886,-0.0002372793388,0.0006255625635
3.357049917,-0.000565379858,0.001697206055,-0.0009880850557,0.002043642545
3.367044917,-0.001102805836,-0.0002708700486,0.001489986433,0.001873395544
3.377038917,0.001602813718,-0.0000158820767,-0.0007811836549,0.001783118604
3.387033917,0.0007703095907,-0.0009080409072,0.0008518667892,0.001464101151
3.397028917,-0.003031238681,-0.0005107033066,0.001154766069,0.003283703775
3.407023917,-0.0009811373893,0.001015288057,0.002304985188,0.0027030348
3.417018917,0.001760097453,-0.000924362801,0.001451281249,0.002461423754
3.427013917,-0.0003872092348,0.0006309231976,-0.001024393365,0.001263873743
3.437007917,-0.0003203616943,-0.000216486631,0.0007825269131,0.0008728381558
3.447002917,-0.001910801511,0.002701006364,0.0007396499859,0.003390233015
3.456997917,0.0004476198228,-0.0005692103878,-0.00105868571,0.001282645471
3.466992917,0.000440429314,-0.001825689804,-0.001308756531,0.002289096961
3.476987917,0.002588464646,-0.002508047502,0.002025963273,0.00413460744
3.486981917,0.0005186561029,-0.001014813082,-0.001305917511,0.001733283096
3.496976917,-0.001724748523,-0.0001106958371,-0.003320188494,0.003743081975
3.506971917,0.0002646328649,0.0002363140229,0.001716381637,0.001752666767
3.516966917,0.001027674531,0.0001862815116,0.0001388199162,0.001053606526
3.526961917,0.0001118134242,-0.0001838980243,-0.0005844946136,0.0006228600794
3.536955917,0.0006754263304,0.0001851250418,0.003036475042,0.003116192017
3.546950917,-0.0005581498845,-0.002356063342,0.0005416255444,0.002481113459
3.556945917,-0.0003816849785,-0.003072044346,0.0008406577399,0.003207778877
3.566940917,-0.0008370854193,-0.0014035739,0.0007799376035,0.001810810415
3.576935917,0.0004257324617,0.0001126118004,0.0006311725592,0.0007696157133
3.586930917,0.001068086829,-0.001139606582,-0.000009317649528,0.001561921718
3.596924917,0.001308795065,0.00194138987,0.0006637719925,0.002433625363
3.606919917,-0.0009034929099,0.002823695075,-0.001458767336,0.003304172431
3.616914917,0.00162335916,-0.0001418720931,0.001087115379,0.001958888077
3.626909917,0.002023898531,0.00003975536674,-0.001868194435,0.00275461362
3.636904917,0.001397413667,-0.001003468875,0.00294667948,0.003412130522
3.646898917,-0.0007379089948,-0.0005158442073,-0.0006760183605,0.001125879991
3.656893917,-0.001047264202,-0.0004594551865,0.001018337323,0.001531297581
3.666888917,0.0007607558509,-0.00007569370791,-0.002591843717,0.002702245891
3.676883917,0.001211579773,-0.0003820727579,-0.001249010558,0.001781553399
3.686878917,-0.001445189817,-0.001288080122,-0.0007592552574,0.002079469296
3.696872917,-0.001772081829,-0.001133544836,-0.000486645964,0.002159171646
3.706867917,-0.0004175980575,0.0002443746198,0.0013621205,0.001445503147
3.716862917,0.001112160273,-0.002052852418,0.0003089488018,0.002355112075
3.726857917,-0.0002889288589,0.00194535125,-0.001247402513,0.002328923443
3.736852917,0.001504297834,0.003104762174,-0.0003268675646,0.00346544406
3.746847917,0.000428913394,0.0001587732695,0.0004260081332,0.0006250268636
3.756841917,-0.001011143904,0.001273478149,0.0008504043799,0.001835033024
3.766836917,-0.001739784726,0.0008766670944,-0.001908630598,0.002727318619
3.776831917,-0.001299579744,-0.002394160954,0.001653783605,0.003186834542
3.786826917,-0.001285731327,-0.001718783053,0.002050860785,0.002968728715
3.796821917,0.001302527497,0.001618216047,-0.001234217896,0.002416297761
3.806815917,0.00105432095,0.001691719284,-0.000693596201,0.002110588186
3.816810917,0.000603521592,0.001741143526,0.00002388318535,0.001842929596
3.826805917,-0.0009871845832,-0.001045854529,-0.00160384085,0.002154216928
3.836800917,0.002296118764,0.0002388546709,0.001012669993,0.002520855697
3.846795917,-0.0005627843784,-0.0002485036384,0.00194557535,0.002040525363
3.856789917,-0.0002812737366,0.002138117328,0.0005872321781,0.002235062025
3.866784917,0.001569090527,0.0005274374271,-0.001857816009,0.002488315825
3.876779917,0.0002332959557,0.001033707405,-0.001350811915,0.001716878223
3.886774917,-0.0006005397299,0.0009980211034,-0.0002421379322,0.00118967427
3.896769917,0.001858234406,-0.001843975158,-0.001420465182,0.002978422539
3.906764917,0.0006651382428,-0.0001339593437,-0.0007759801811,0.001030776032
3.916758917,-0.0001246194588,0.002069296548,0.0003424007446,0.002101132191
3.926753917,0.0005203982582,-0.001199733699,0.00003160990309,0.00130811868
3.936748917,0.0005565299653,0.001132489066,-0.002389571629,0.002702278605
3.946743917,-0.00003602332436,0.001411588397,0.00004269334022,0.001412693245
3.956738917,0.0003950580722,-0.0004816367291,-0.0005359021598,0.0008217274147
3.966732917,-0.001764499233,-0.0004281073343,-0.00009355111979,0.00181809935
3.976727917,-0.0008828566642,0.001285770442,-0.0009328984888,0.001817399546
3.986722917,0.0001397972228,0.002814424923,0.00001625204459,0.002817941631
3.996717917,0.001321553253,-0.001752024749,-0.0004779862938,0.002246010823
4.006712917,0.001660041045,0.00009780703112,0.00217106007,0.002734740265
4.016707917,-0.000366760185,-0.00114482455,-0.00180561468,0.00216918894
4.026701917,-0.0009904725011,-0.001694234554,-0.001398683758,0.002409934181
4.036696917,-0.0005369943101,-0.001281325473,-0.001501019695,0.002045291661
4.046691917,-0.001711448305,-0.001025928417,0.001097692759,0.002277391888
4.056686917,-0.0001064314274,0.000177497277,-0.0007751577068,0.0008023106646
4.066681917,-0.002219915856,0.0006880252622,0.0001332465326,0.002327908891
4.076675917,0.0002903102431,0.0001365079079,0.002323443536,0.002345485943
4.086670917,0.001057566842,0.0008531644708,0.002329835203,0.002697122413
4.096665917,0.0001724786125,0.0008936371887,0.0006181966746,0.001100228806
4.106660917,0.003213808406,0.001515218988,-0.003699319903,0.005129270981
4.116655917,0.0009299824014,0.0003411113285,0.0009313025512,0.001359613418
4.126650917,0.001648769481,-0.0008591753431,0.001333972439,0.002288253819
4.136644917,-0.001582347439,-0.00235777162,-0.001767093549,0.003344477543
4.146639917,0.001975901891,0.0002441366669,0.002814874984,0.003447798163
4.156634917,-0.0003222763771,0.0003443725873,0.001207610127,0.001296447747
4.166629917,0.001069225138,-0.002478578128,-0.00008295767475,0.00270064324
4.176624917,0.0003516296856,-0.001707196468,-0.0003076957073,0.001769983013
4.186618917,0.0009162197821,-0.003235584823,-0.0004134231713,0.003388124342
4.196613917,0.001106226933,-0.0004200723488,-0.0006293584593,0.001340257765
4.206608917,0.0005059504183,-0.0001785235945,-0.0009705093689,0.001108938652
4.216603917,0.001531903632,-0.000761698233,0.00003806431778,0.001711245695
4.226598917,0.003972956911,0.002032490214,-0.0001424979419,0.004464942189
4.236593917,0.0004532332532,-0.003288957523,-0.001853652881,0.003802458543
4.246587917,-0.0008863366675,-0.001329669729,0.0003652930027,0.001639223369
4.256582917,-0.0008097138489,0.001583653269,0.002694057766,0.003228241231
4.266577917,0.00003610609565,0.001603094395,-0.00129482476,0.002061015878
4.276576,-0.0009526354261,-0.000510502141,-0.000136047136,0.00108932801
4.286571,-0.001625882462,-0.001594142523,-0.0004875843879,0.002328631078
4.296565,0.0003686634591,0.0007825553184,-0.0006592057762,0.001087592676
4.30656,0.001893589622,-0.0003884367179,-0.0002751779975,0.001952508047
4.316555,0.002631842159,0.0004880920751,0.0002427180298,0.002687701446
4.32655,-0.0008702147752,-0.0008360317443,0.001325559337,0.001792576466
4.336545,0.0008781080833,0.0003854599781,-0.0000393105438,0.0009597908728
4.34654,0.001605949947,-0.00005289632827,0.0004943868844,0.001681157828
4.356534,0.0002792425221,0.002740750788,0.0007221043343,0.002848003851
4.366529,0.001683793613,-0.001815917669,0.001191353309,0.002748097636
4.376524,0.00007635052316,-0.0004046491813,-0.001496284618,0.001551914308
4.386519,0.0002675653668,0.00152933842,0.0008744612569,0.00178189498
4.396514,0.0008423893014,0.001733086538,0.0009470218793,0.002147104823
4.406508,-0.001218098449,-0.002977779135,0.0002671167022,0.003228356198
4.416503,-0.00009232014418,0.0007169051096,0.00008231040556,0.000727496356
4.426498,0.001585204969,0.0005754913436,0.002801131457,0.0032696181
4.436493,-0.0003558520693,0.0006430278299,-0.0001482033404,0.0007497197579
4.446488,0.002686542924,0.0007644679863,-0.0001034621382,0.002795107977
4.456482,0.0008154957322,-0.0007604006678,0.0003829218913,0.001178928174
4.466477,-0.00008119049016,0.00113923219,-0.0003433220554,0.001192607191
4.476472,-0.001622941811,-0.002924239729,-0.001302075689,0.003588944024
4.486467,0.0009771024343,0.001377830631,0.001865488128,0.002516583472
4.496462,0.0002602821914,0.000649309135,-0.00119196414,0.00138207369
4.506457,-0.00007261300925,0.001755586243,0.001555086579,0.002346412149
4.516451,0.00006366346497,-0.00105836615,0.0007319852011,0.001288407652
4.526446,0.002949997317,0.00001355609857,0.001508562942,0.003313371408
4.536441,0.0007470466662,0.001160020591,-0.001422291505,0.001981575035
4.546436,0.0008378603961,-0.001516189892,-0.0003767345333,0.001772786152
4.556431,0.001824719599,-0.001173714409,-0.0006135972799,0.002254708129
4.566425,-0.0006059474545,0.001239375793,-0.000759804796,0.001574969207
4.57642,0.0001655515516,0.001906804158,0.000227141194,0.001927408243
4.586415,-0.0008834675536,0.001765390276,-0.0005188101786,0.002041147164
4.59641,0.0008609589422,0.001019950956,0.0002928216709,0.00136648995
4.606405,0.0007562966784,0.0007794675184,-0.0004254329251,0.001166425073
4.6164,-0.001814298797,0.0009767961456,-0.001436364371,0.002511763015
4.626394,0.0004888029071,0.001112617319,0.002764772158,0.003020067991
4.636389,-0.001529114903,-0.001482276479,-0.00009751389734,0.002131864186
4.646384,-0.0006795665249,-0.0005768015981,-0.002021647757,0.002209427618
4.656379,-0.001177198719,0.001951229875,0.0007709858473,0.00240572526
4.666374,0.0003088453086,-0.0009747853037,0.004045608453,0.004172833518
4.676368,0.0003533412237,0.000632568961,0.001602426055,0.001758625251
4.686363,-0.0005438778317,-0.00220502913,-0.0005105258897,0.002327787199
4.696358,-0.001102554845,-0.003175748978,0.001585938269,0.003717016135
4.706353,-0.001072993735,0.002687199973,-0.00106017862,0.003081612882
4.716348,0.0007531514857,-0.0004937297199,-0.0005672504194,0.001064321021
4.726343,0.0004724543542,0.001343851443,0.001480720355,0.002054673353
4.736337,0.001735836035,0.0007100926014,-0.00009013107046,0.001877626654
4.746332,0.0008868202567,0.000492246123,-0.0006169042899,0.001187150924
4.756327,0.001170591917,-0.001658253372,-0.0006874018582,0.002143037796
4.766322,0.0006123934872,0.0003079585731,0.002218639478,0.002322116578
4.776317,-0.00173909415,0.0006431079237,-0.0002837276552,0.001875776545
4.786311,0.00118239352,-0.0007217619568,-0.002956742421,0.00326516776
4.796306,-0.002157154959,-0.001111641526,-0.001193085918,0.00270416686
4.806301,-0.0004905487876,-0.0002996437252,0.001011745189,0.001163637746
4.816296,0.001137308078,0.000031466363,-0.00184412417,0.002166853422
4.826291,-0.002156755887,0.00008739274926,0.0001822750783,0.002166208128
4.836286,-0.0009425737662,0.0008396530757,0.002205118537,0.002540868032
4.84628,-0.001017941162,-0.002757478505,-0.001196803292,0.003173677683
4.856275,0.0007660363335,0.0009169843979,0.00002269202378,0.001195067771
4.86627,-0.001843328937,-0.002292124787,0.001837636344,0.003468227926
4.876265,0.0005152996164,0.001487350091,-0.001652044011,0.00228188374
4.88626,-0.0009755380452,-0.0029412203,-0.001702644047,0.00353573869
4.896254,0.001323528588,0.002041579923,0.0004059319617,0.002466689535
4.906249,0.000168515835,-0.00007430161349,0.001003279001,0.001020042681
4.916244,-0.002116174204,0.001872098073,-0.002217532601,0.003591712029
4.926239,-0.001474618679,0.0004206752637,-0.001564525417,0.002190709407
4.936234,0.0004370340612,-0.001627437305,-0.0005997926928,0.001788659338
4.946229,-0.0001757593127,0.0003185344394,-0.0009079204174,0.0009780976482
4.956223,0.0006651247386,0.00111253839,-0.0002133552916,0.001313641149
4.966218,-0.0002624541521,-0.0009471504018,0.001130209537,0.001497781581
4.976213,0.0001650216291,-0.001420015935,-0.0006303485716,0.001562375344
4.986208,-0.001608111081,0.0001453901641,-0.001121435431,0.001965903602
4.996203,0.000789446407,-0.001180052524,-0.00147025811,0.00204387096
5.006197,0.0001047475962,0.0003390146885,-0.000459588482,0.0005806243112
5.016192,-0.0004874145379,-0.003883932019,0.0001960946247,0.00391930529
5.026187,-0.0007539970102,-0.0005264850333,0.0003090127138,0.0009701478439
5.036182,0.000413612579,-0.0004769128282,0.002154198941,0.002244792705
5.046177,-0.0006593749858,0.0006711758906,0.0007477834588,0.001201845476
5.056172,-0.001404001843,0.00171164237,-0.001756761107,0.002826154696
5.066166,-0.0009169096593,0.001448788331,0.0006475406699,0.001832762906
5.076161,0.0009234482422,-0.00005936995149,0.0002768411068,0.0009658791051
5.086156,-0.001679791603,-0.00278724567,0.00009547977243,0.003255695724
5.096151,0.001176591148,0.0002915568184,-0.002704784973,0.002963989517
5.106146,0.0001094625331,0.0006588067627,0.0006598526379,0.000938836461
5.116141,-0.0007754340768,0.001608706662,0.000390712521,0.00182808408
5.126135,0.001325267367,-0.0001993132755,-0.002886573551,0.003182509425
5.13613,0.0003417257685,-0.0003374626394,0.001675796462,0.001743258821
5.146125,-0.002247665776,-0.0008927315939,0.0003894895781,0.00244962717
5.15612,0.0002507742029,0.0006772595225,-0.002541734371,0.002642343993
5.166115,0.0007285452448,-0.0002037142403,-0.00000613857992,0.0007565152659
5.176109,-0.001105940551,0.0004219070543,0.0001935894834,0.001199411086
5.186104,0.0006461532321,0.002248835517,-0.00138779555,0.002720432258
5.196099,0.001044076052,0.001702356618,0.002348256763,0.003082599988
5.206094,0.0017809727,-0.001007409766,0.0005450303433,0.002117497643
5.216089,0.0001843558857,0.0004730958026,0.001076532877,0.001190264578
5.226084,0.002958570607,0.00001396681182,0.0002272508573,0.002967318328
5.236078,-0.001098034438,0.0006029629149,0.0001466346439,0.001261247645
5.246073,-0.0009227984119,-0.001831965288,0.0003604864469,0.002082691577
5.256068,-0.0007667238824,-0.0006922828034,-0.000617720536,0.001203619397
5.266063,0.001500158804,-0.00154955429,-0.00005446199793,0.002157443173
5.276058917,-0.002122334205,-0.0007330400404,0.001830561785,0.00289699959
5.286052917,0.0008036808576,0.001582045807,0.001198860118,0.002141503546
5.296047917,0.0000286482973,-0.001696477877,0.0004076745827,0.001745009019
5.306042917,0.0004425034858,-0.0000224148389,-0.001723120688,0.001779173028
5.316037917,-0.001483998727,0.001294671791,-0.0008169260109,0.002132087094
5.326032917,0.0003927309299,0.001498669968,-0.0009649977437,0.001825231465
5.336027917,-0.003090204438,0.001735394821,0.0009181874339,0.003661151023
5.346021917,0.0006203779485,0.0005359071074,-0.001009408617,0.001300373402
5.356016917,-0.001985475188,0.0008498668903,-0.00008470565081,0.002161379305
5.366011917,0.0009687693091,0.002773734508,-0.0003254554467,0.002956017311
5.376006917,0.0007707653567,-0.003578366479,0.0006802402204,0.003723105243
5.386001917,0.001351600746,0.001358069014,-0.0004236398963,0.001962306496
5.395995917,-0.000401164405,-0.0009028243367,-0.002327019814,0.002528051795
5.405990917,0.00231659133,-0.002335871337,-0.0006391083589,0.003351320603
5.415985917,-0.0005220163148,0.0004222742282,0.001461981563,0.00160879043
5.425980917,0.0004806637298,-0.001075221458,-0.002718116157,0.002962312314
5.435975917,-0.001224159496,0.001571011264,-0.001859985758,0.002725103646
5.445970917,0.001896000002,-0.0006186398678,0.001396261388,0.002434558924
5.455964917,-0.001458085375,-0.001616175985,-0.0008247267688,0.002327705312
5.465959917,0.003554516239,-0.00006248778664,0.001223776722,0.003759803171
5.475954917,-0.001587916166,0.002379236976,0.001954194158,0.003464263435
5.485949917,0.002623873064,0.0005866632564,0.0005019722739,0.002735116048
5.495944917,-0.002695721807,-0.0001011907589,-0.0006248121499,0.002769033379
5.505938917,0.0005184473703,-0.0016865707,-0.0002967106411,0.001789230451
5.515933917,-0.002899623709,0.001546136104,0.001848764718,0.003770448976
5.525928917,0.0009734114865,-0.0006379222032,-0.001528922468,0.001921478226
5.535923917,0.0004992384929,0.002432776615,-0.0027597812,0.003712685471
5.545918917,0.000796180917,-0.0001182653941,0.001873853034,0.00203941559
5.555913917,-0.001221146784,0.002618968952,-0.0007000033511,0.002973247809
5.565907917,0.001787426299,0.0003009536304,-0.0003745650174,0.001850882172
5.575902917,-0.001512419316,-0.0009558128659,-0.0004569732118,0.001846568422
5.585897917,0.002373931464,0.001619197545,0.00102587475,0.003051191617
5.595892917,0.0003143866779,0.0001959141809,0.0001905588433,0.0004165741498
5.605887917,0.002138385549,-0.001844333485,0.0001074682223,0.002825917228
5.615882917,-0.000613856595,-0.0006049359217,-0.000117241987,0.0008697775992
5.625876917,0.000415721559,-0.0001463394146,-0.0003124517389,0.0005402459884
5.635871917,0.001697788597,0.0008031788748,-0.002644997789,0.003244009206
5.645866917,-0.0003893306712,-0.0009734157939,0.0009127191734,0.001390026247
5.655861917,-0.001155112754,0.001749682124,0.001906571211,0.002833846642
5.665856917,0.001319496427,-0.00005274522118,-0.0008846879355,0.001589504835
5.675850917,-0.0004263554001,0.002414377173,-0.0003305019345,0.002473909374
5.685845917,-0.002051416319,0.0006521635223,-0.0007648635074,0.002284434801
5.695840917,-0.0009699471993,0.001445815666,0.0001362585463,0.001746352456
5.705835917,0.0006228894927,-0.0007185353898,-0.001388667501,0.001683057294
5.715830917,0.002612797078,-0.00003986433148,-0.0006151643465,0.002684534393
5.725825917,-0.0002213391708,0.002746867482,-0.001355256769,0.003070992169
5.735819917,-0.002102103317,-0.001678107772,-0.002648613881,0.003774922455
5.745814917,0.0006430831272,0.001836465672,-0.0001055615721,0.001948667575
5.755809917,0.00156088837,-0.002375448355,0.003364036791,0.004404074355
5.765804917,-0.0004575214116,0.0006269993028,-0.000510596321,0.0009290654287
5.775799917,0.0005957207177,0.0005034606438,-0.001584274345,0.001765865508
5.785793917,0.000472682761,-0.002343191998,0.004109297879,0.004753977996
5.795788917,0.0007644210709,0.0009881072911,0.0004810445243,0.001338693179
5.805783917,-0.0003860646393,0.002136462368,0.0005990226055,0.002252186812
5.815778917,-0.0008973235381,0.001459016348,0.00008785445243,0.001715120008
5.825773917,-0.001363909338,0.0008422281826,0.001087605022,0.001937132333
5.835768917,-0.001622817363,-0.000591293443,-0.000616987003,0.001834076631
5.845762917,-0.0006853847299,0.002051361371,0.0007092671003,0.002276158062
5.855757917,0.0003817752004,-0.0002967303153,0.003725434421,0.00375668242
5.865752917,0.0006004206371,0.0007003572537,0.0002449493622,0.0009544660362
5.875747917,-0.0006816727109,0.000885555055,-0.0008297348977,0.00139188557
5.885742917,0.0002355198376,0.002832059516,-0.00189100462,0.003413492225
5.895737917,0.0002837656066,-0.0007198846433,0.002264638897,0.002393187446
5.905731917,-0.0000113126589,0.0006186200771,0.0001908353297,0.0006474850571
5.915726917,0.001568058506,-0.002144746715,-0.0006970484974,0.002746747633
5.925721917,-0.002405643929,0.002258257242,0.002835634863,0.004350594621
5.935716917,-0.0006493100664,-0.001827878412,-0.000207839068,0.001950881885
5.945711917,-0.0005129562924,-0.001137853134,-0.0006619080086,0.001412783113
5.955705917,-0.0009601274505,0.000870155287,0.00198460836,0.002370165666
5.965700917,-0.0001140411478,0.001803326886,-0.001556597068,0.002384950246
5.975695917,0.001471129479,0.00009380932897,0.0009735790081,0.001766600753
5.985690917,0.00116646383,-0.000498211477,0.0007876902819,0.00149308691
5.995685917,-0.000306695234,0.001720177243,-0.0002797831548,0.001769562185
6.005680917,-0.000862496905,-0.002625036286,0.0008978667902,0.002905319464
6.015674917,0.001543673454,0.003379024565,-0.00002268142998,0.003715003256
6.025669917,0.00001155689824,-0.001683911076,0.0002793211024,0.001706959388
6.035664917,0.001749574556,-0.001977539388,-0.002375038341,0.003551405395
6.045659917,-0.003223346081,-0.001052090898,0.0008670939133,0.003499815291
6.055654917,0.0007527238922,-0.001780459192,0.001051186002,0.002200368197
6.065649917,-0.00002225593198,-0.0001628552563,-0.00008758157492,0.0001862463242
6.075643917,-0.0001242883736,-0.00002989266068,0.0009768761229,0.0009852046135
6.085638917,-0.0008499998366,-0.000793953659,0.0002690078691,0.001193828869
6.095633917,-0.0002523706062,0.0004967595451,0.001342627453,0.001453653826
6.105628917,0.001609178958,0.0005204617046,0.0002800261136,0.001714278837
6.115623917,-0.0009359710966,0.001435356564,-0.0003939875169,0.00175827089
6.125617917,0.0005553991068,-0.0006981017068,0.0004923124798,0.001018914
6.135612917,0.002528756857,0.0003693501931,-0.0007363503682,0.002659556856
6.145607917,-0.0002758179326,0.002552609658,-0.001105464529,0.002795343167
6.155602917,-0.0004710977664,0.003334626555,0.0008758275071,0.003479761657
6.165597917,0.0002018830273,0.001542585436,0.0007586482679,0.00173085926
6.175592917,0.0002838680521,-0.00128912786,-0.001087225042,0.001710114032
6.185586917,0.001431690529,-0.0006161469501,-0.0007258341648,0.001719363274
6.195581917,-0.00007894204464,0.0003451886587,0.00002815027256,0.000355217531
6.205576917,-0.0001644294243,0.0008237587754,-0.0005984915188,0.001031410517
6.215571917,0.000253320206,0.0003445781767,0.001379007706,0.001443803138
6.225566917,0.001657871297,0.001202915097,0.001146780094,0.002347476635
6.235561917,-0.0004423051141,0.0005608331412,0.002275247592,0.002384726239
6.245555917,-0.001692126621,-0.00243362505,0.0002041074913,0.002971108085
6.255550917,0.001587888226,0.002175723901,-0.0002587591298,0.002705941573
6.265545917,0.001001992729,0.0007527968846,0.001875498216,0.002255700808
6.27553675,0.0003281133249,0.0008011780446,0.001534659881,0.001762023145
6.28553175,-0.000320898951,-0.0003237412311,0.001486989204,0.001555288209
6.29552575,0.0003929650411,0.0003408731427,0.001787408255,0.001861570384
6.30552075,-0.001954078907,-0.001361153089,0.001162098022,0.002649836583
6.31551575,0.0005748403491,-0.0005414686166,-0.002568228636,0.002686899331
6.32551075,-0.00105022057,0.001731539378,-0.002724822378,0.003394974058
6.33550575,-0.00001644238364,0.001751778997,0.001903244993,0.002586762747
6.34550075,-0.001129111042,0.0007325871848,-0.0009543267079,0.001649943997
6.35549475,-0.0001515805488,0.001404754352,0.0001678628614,0.001422845526
6.36548975,0.002147260122,-0.000387819251,0.0009175427258,0.002367068748
6.37548475,0.001318767318,-0.0001166404691,0.0003802644787,0.001377444486
6.38547975,-0.0006383898435,0.002801917726,-0.0005984472809,0.002935374539
6.39547475,0.0006045135669,0.001007508021,0.00002116244286,0.001175141231
6.40546975,0.001704399241,-0.0009890638757,0.0003977334127,0.002010327334
6.41546375,0.00062160776,-0.0000921569299,-0.001292281318,0.001436969072
6.42545875,-0.001027155202,-0.0005893690977,-0.001054993714,0.001586006141
6.43545375,0.00012311514,-0.0007049993146,-0.0003603310324,0.0008012613957
6.44544875,-0.00009393249638,-0.0001454690937,-0.0001113255275,0.0002058590396
6.45544375,0.0008564447053,0.0008451570757,0.00008175242692,0.001206014708
6.46543775,-0.001137996558,-0.001376984408,0.0005669803359,0.001874190206
6.47543275,-0.0004240475828,-0.001231697621,-0.0005475911894,0.001413064575
6.48542775,0.0001493310556,0.0005941655254,-0.001802472631,0.001903743685
6.49542275,0.0009677942144,0.0006225380348,0.00003140349872,0.001151158297
6.50541775,-0.0000324890716,-0.001586553873,-0.001013887231,0.001883129324
6.51541275,0.000394559931,-0.0005579194985,0.00004322477616,0.0006847043795
6.52540675,0.001379396766,-0.0001326126512,-0.0006649097195,0.001537018702
6.53540175,0.001038207789,-0.002952373819,0.002188772429,0.003819045866
6.54539675,0.000121015124,0.001728131901,-0.0006440318539,0.001848204956
6.55539175,0.0008834510809,0.0005118937697,0.0008711561095,0.001342175104
6.56538675,-0.001212723088,-0.00134725892,-0.0009704198455,0.002056093033
6.57538175,-0.001130766235,0.003426065901,0.001587391831,0.003941620563
6.58537575,-0.0002971969079,0.0002582357265,-0.0002685651416,0.0004765909439
6.59537075,0.0006684978725,0.001082016621,-0.0002679774771,0.001299792792
6.60536575,0.001360387192,-0.0006865886971,0.002322745509,0.002777985611
6.61536075,0.0008107102476,0.0009847406764,-0.00142967701,0.001915970161
6.62535575,-0.002098260447,0.0002798018977,-0.0005399149377,0.002184603888
6.63534975,-0.0003135009902,0.0009120072937,0.001205929788,0.001544120082
6.64534475,-0.00001975428313,0.001253424562,0.002064799191,0.002415545293
6.65533975,-0.002041210653,0.0007627648301,-0.00009069486987,0.002180957743
6.66533475,0.0002115571406,0.0007515795296,0.002457418013,0.002578474647
6.67532975,0.0006603744114,0.00254921848,0.0005366250407,0.002687485005
6.68532475,0.0003762150882,0.0005025792634,-0.0007523449021,0.0009798706855
6.69531875,-0.0002999850549,-0.0002321915235,-0.001027598977,0.001095382853
6.70531375,-0.0001833386486,0.001619770657,-0.0001876379829,0.001640877221
6.71530875,0.0001369946403,0.002448255662,0.00120173255,0.002730729653
6.72530375,-0.000398300821,-0.002670606133,-0.001086189179,0.00291042739
6.73529875,-0.000326118432,0.001004113234,-0.0001572867623,0.001067396713
6.74529375,0.0001543157268,0.002541556256,-0.001117356238,0.002780612614
6.75528775,0.0009969739476,-0.002898433479,-0.0006423922605,0.003131699458
6.76528275,0.001362093375,0.001666490687,-0.001087140176,0.002411299097
6.77527775,0.0004337040009,-0.002229095669,-0.0007311144145,0.002385685426
6.78527275,0.001247832435,0.002264988841,0.000287811039,0.002601940705
6.79526775,-0.0006662291707,-0.001212508418,-0.002427513711,0.002794076017
6.80526275,0.001172150951,-0.0009027828928,0.0009365915321,0.001751044974
6.81525675,-0.002219890011,-0.0006977040321,-0.0002326683607,0.002338554499
6.82525175,-0.0007426345255,-0.0004156753421,-0.002589565935,0.002725829004
6.83524675,-0.001038510934,0.001402059104,-0.0006876782281,0.001875413565
6.84524175,0.0007218384417,-0.003120787442,0.001480135019,0.003528620788
6.85523675,0.0008483799174,0.001485865447,-0.0006315375795,0.001823837801
6.86523075,-0.0009905328043,0.0004538905341,-0.00079878408,0.001351009941
6.87522575,0.0007709037745,0.000288200099,0.0001858697506,0.0008437413649
6.88522075,0.001193813863,0.000248252647,0.002161136363,0.002481397045
6.89521575,-0.0003712947946,0.0008961308049,-0.001129675424,0.00148898516
6.90521075,0.001832470996,-0.0005475687794,0.0003603631631,0.001946186818
6.91520575,-0.0004525769036,-0.0005929653998,0.0006217811024,0.0009711053282
6.92519975,0.001040124916,0.001133828191,-0.001568668755,0.002197304683
6.93519475,-0.001311538392,-0.00009949645028,-0.0002861372195,0.001346070951
6.94518975,0.001252819435,0.0005918600364,0.0009322590195,0.001670018478
6.95518475,-0.001983677037,0.001031575608,-0.002249005949,0.003171301087
6.96517975,0.00119507208,0.001992976759,-0.0001131508034,0.002326576184
6.97517475,-0.0005705811782,-0.003436059458,0.0004960816586,0.003518261573
6.98516875,0.00156607281,-0.00157184666,0.00009234645404,0.002220768749
6.99516375,-0.001158454455,0.001351235434,-0.001689329278,0.002453912658
7.00515875,-0.0002093038056,-0.00143043627,-0.00245871651,0.002852234717
7.01515375,-0.001812908798,-0.0009207765106,0.0005510246847,0.002106678879
7.02514875,-0.001237399643,0.001324268174,-0.000468965969,0.001872103938
7.03514375,-0.0003330992768,-0.001386485761,-0.001568592619,0.002119853933
7.04513775,-0.001269466709,0.0004612153862,-0.001602414763,0.002095709529
7.05513275,0.0001379606547,-0.0006960320752,0.002387546003,0.002490756854
7.06512775,0.0005909643369,-0.001676341752,-0.001996549778,0.002673120186
7.07512275,-0.0006951104151,-0.001110965153,-0.0005280521,0.001412891037
7.08511775,-0.0005017649382,-0.000333055621,-0.001110485406,0.00126327825
7.09511175,0.00275229523,-0.0003136021551,-0.001943154261,0.003383684947
7.10510675,0.0005946024321,0.0003828144399,-0.001725307666,0.001864614032
7.11510175,0.001571818837,0.0004201835254,0.002656374127,0.003115042881
7.12509675,-0.0009605809464,0.0009914315306,0.0005628630752,0.001490794109
7.13509175,0.0006885647308,0.0003300870303,-0.00242184638,0.002539373688
7.14508675,-0.001657946501,-0.0004741875455,0.001418431872,0.002232843345
7.15508075,-0.001005849219,0.0006911243545,0.0007725919131,0.001444397379
7.16507575,0.001117755543,-0.003284708597,0.0001267753541,0.003471996545
7.17507075,0.00006136926822,0.0007432939019,-0.0005273659481,0.0009134368368
7.18506575,-0.001830007648,-0.00282587437,-0.00008821068332,0.00336782943
7.19506075,0.0005497696111,0.000161828706,0.0009458087152,0.001105888458
7.20505575,0.001316227368,0.001620175783,-0.001268876018,0.002442840642
7.21504975,0.002661815844,0.0001951628365,0.002204779536,0.003461849928
7.22504475,0.0007685747696,0.000201288145,-0.001177435159,0.001420414604
7.23503975,0.00004036189057,-0.003202115186,-0.002110413508,0.00383523349
7.24503475,-0.0008400790393,0.0003737109946,-0.001480842126,0.001743068014
7.25502975,-0.001350623555,0.0003950323444,0.002764720703,0.00310224356
7.26502475,0.0004075954203,0.0006967684021,0.00003977445886,0.0008082092801
7.27501875,0.0004498191411,0.0001814956777,-0.0009538374143,0.001070085863
7.285013292,0.0005922982236,0.001452089986,-0.0006787328748,0.001708818547
7.295008292,0.002149809618,0.0006599326152,0.001979512628,0.002995941036
7.305003292,0.000224077492,0.001034905668,-0.0005752576981,0.001205056797
7.314998292,-0.002409690991,-0.00008283788338,0.002161389682,0.003238067039
7.324992292,-0.002240580274,0.001104132854,0.001897203969,0.003136668969
7.334987292,0.0001634642249,0.003399826121,-0.002186181955,0.004045359038
7.344982292,-0.0004876786843,0.003774799174,-0.001095883898,0.003960795478
7.354977292,0.0008137343684,-0.00233285618,0.001041201758,0.002681134588
7.364972292,-0.00005365733523,-0.0006910173688,0.0003860640572,0.0007933659748
7.374967292,-0.0007582663093,-0.0004482977092,0.0001832908019,0.0008997411572
7.384961292,-0.0004522691015,-0.00126029551,-0.0004417530727,0.001409977975
7.394956292,-0.0006771103945,-0.001375380438,0.0006081776228,0.001649251302
7.404951292,0.0001679107081,0.0006512851687,-0.002933826763,0.003009934526
7.414946292,-0.0004760685842,0.002282589674,0.002857829444,0.003688366312
7.424941292,-0.00217143679,-0.0003574017901,-0.001934528816,0.002930064081
7.434936292,0.001282509067,-0.0009297800716,-0.001766445581,0.00237268845
7.444930292,-0.002126070904,0.0002955403179,0.001733747078,0.002759239116
7.454925292,0.001687944867,0.00004156702198,-0.0008790830616,0.001903594684
7.464920292,-0.002086553257,-0.002029839903,-0.000889735762,0.003043942222
7.474915292,0.0005421260139,-0.002407408319,-0.001872091787,0.00309745752
7.484910292,-0.001198516111,0.00100037246,0.0006073110271,0.001675115701
7.494905292,0.00128033245,0.001015895163,0.0006918072468,0.001774793349
7.504899292,0.000380450394,0.000003893859684,-0.000926063105,0.00100117458
7.514894292,-0.0006553701824,-0.003549757879,-0.001582652214,0.00394145647
7.524889292,-0.0006287385477,0.00008439202793,-0.00011471787,0.0006446660883
7.534884292,0.001083480427,-0.000007085502148,0.001295145717,0.001688603704
7.544879292,-0.002415114082,0.00003978610039,-0.0005794534227,0.002483973678
7.554874292,0.002208410064,-0.0007828432135,0.002558405977,0.003469201587
7.564868292,-0.002420430072,-0.001354357693,0.002861473709,0.003985071929
7.574863292,0.0005076673115,-0.0009071808308,-0.0006990381517,0.001252739996
7.584858292,0.0004807695514,0.00268835295,0.001101258676,0.002944681921
7.594853292,-0.0002040908439,0.0004242080031,-0.0004076063633,0.0006226945077
7.604848292,0.0008060460677,0.001096123597,0.0002832176397,0.001389751573
7.614843292,-0.001574164839,-0.0002493711654,0.002327550203,0.002820934395
7.624837292,0.001316962764,0.001249455847,0.0005461617839,0.001895738254
7.634832292,0.0002932467032,-0.0006773583591,0.00006570841651,0.0007410300747
7.644827292,0.001500723884,0.0005010903114,-0.001189173083,0.001979241343
7.654822292,0.0007322768215,-0.0008301755879,0.001417998574,0.001798927682
7.664817292,-0.0003873162204,-0.001700496301,-0.0001535328338,0.001750792351
7.674812292,-0.0002173902467,-0.001002604142,0.0008553969674,0.001335731094
7.684806292,-0.001163078705,-0.001018316718,-0.0007619407843,0.001723448511
7.694801292,0.001749002142,-0.001463779481,0.0007467039395,0.002399838669
7.704796292,-0.002261452144,-0.00130931614,0.001510764938,0.003018424299
7.714791292,0.001783999614,0.0005894288188,-0.001810993301,0.002609555075
7.724786292,-0.001283163088,0.0004117960343,-0.0003513147822,0.001392661323
7.734780292,-0.0006055440754,-0.002051301533,-0.0003948374069,0.002174952456
7.744775292,0.0001899420749,-0.000332497526,0.0007463272195,0.0008388306833
7.754770292,-0.001340466784,0.001721265493,0.0008648126386,0.002346807831
7.764765292,-0.00154047017,-0.00002417038195,0.00009143049829,0.001543370366
7.774760292,0.0007927716943,-0.000200126553,-0.001013337751,0.001302071808
7.784755292,-0.002243231982,-0.0004288922064,-0.002833874663,0.003639626884
7.794749292,-0.002445841208,0.0007269990165,0.002658744808,0.003685049625
7.804744292,0.0008335752646,0.00171156961,0.0007788193179,0.002056909765
7.814739292,-0.0003565491643,-0.001435101498,0.0001899923664,0.001490885883
7.824734292,0.001451470889,-0.0003639780916,0.001307188533,0.00198695487
7.834729292,-0.00161367713,0.001603372861,0.0018955837,0.002961080204
7.844724292,-0.0008869004669,0.002501390642,-0.0007649142644,0.002761999531
7.854718292,0.0003617964685,0.00006064656191,0.0005585699109,0.0006682626995
7.864713292,0.002101373393,-0.001580659766,-0.0005562293809,0.002687684237
7.874708292,-0.000517858658,0.000561246532,-0.001037743641,0.001288443683
7.884703292,0.0009838979458,-0.002098186174,-0.001034547808,0.002537859247
7.894698292,0.0002174350666,-0.001163779525,-0.000424526399,0.001257729484
7.904693292,0.00005817797501,-0.0008029211313,0.0008804225363,0.001192984016
7.914687292,-0.002315292135,0.0004272762453,0.000004048924893,0.00235439144
7.924682292,0.002101826947,-0.002781033749,-0.001466814894,0.003781979794
7.934677292,0.0003948095255,-0.001274128444,-0.000702116813,0.001507397052
7.944672292,-0.0002334301826,0.001185034518,0.001037193579,0.001592032342
7.954667292,-0.0022156958,-0.001189694041,-0.0009757234948,0.002697538902
7.964662292,-0.002103843261,-0.001328710932,0.000697540585,0.002584219819
7.974656292,-0.002243833849,0.00119690015,0.000596736325,0.002612174296
7.984651292,0.0008243940538,0.000744695426,0.0003895424306,0.001177259588
7.994646292,0.000001502339728,0.001199190621,0.0002968752524,0.001235392779
8.004641292,0.00009817513637,-0.002606733004,-0.0003105917713,0.002627006387
8.014636292,0.0003427250776,0.0007282727165,-0.0003373951185,0.0008727411383
8.024631292,0.001406924101,-0.00007253978401,-0.00276513258,0.003103329765
8.034625292,-0.001717195963,0.001103278715,0.0005792655284,0.002121681986
8.044620292,0.000474052853,-0.001410478959,0.001073814463,0.001835008039
8.054615292,0.0004216979723,0.000261798501,-0.001585590653,0.001661464822
8.064610292,0.0004368780646,-0.001435966697,0.001546286861,0.002154963075
8.074605292,0.0006201718934,-0.0003395520616,0.002380094957,0.002482893631
8.084600292,-0.0004506850382,0.001395231113,0.0001718016574,0.001476246142
8.094594292,0.0007118780632,-0.0001924601384,-0.003821966238,0.003892459018
8.104589292,0.001309491461,-0.001066509634,0.0008279128233,0.001880864251
8.114584292,-0.002147872001,-0.00001956522465,-0.0008378765197,0.002305596234
8.124579292,0.001034605317,0.001169802505,-0.0009044555482,0.001804684432
8.134574292,-0.000337373931,-0.001848989399,-0.0004613138153,0.00193530189
8.144569292,0.0007462663343,-0.001092918217,-0.0001601102995,0.001333048753
8.154563292,0.0004629276227,-0.001357599394,0.00001734844409,0.001434461247
8.164558292,0.002039785264,-0.001094479114,-0.0002692076378,0.002330468023
8.174553292,0.00152654422,-0.001002628822,0.00203743903,0.002736194366
8.184548292,-0.002212800318,-0.000005807727575,-0.0001878981711,0.002220771195
8.194543292,-0.0008757580654,0.0008063541027,0.0006963987835,0.001379177434
8.204538292,0.0001141389366,0.001974949148,0.0003240887308,0.002004616008
8.214532292,-0.0008644008776,-0.0009332562331,-0.00002937682439,0.001272406803
8.224527292,-0.00110142224,-0.0002165995538,-0.002377485856,0.002629160572
8.234522292,-0.001092065126,0.0004632424098,0.001158759231,0.001658289095
8.244517292,-0.0003658210626,-0.0001287783962,0.0004905720707,0.0006253558041
8.254512292,-0.001034414279,-0.002528662328,0.0003740307875,0.002757543309
8.264507292,-0.000593394856,0.001152891316,-0.001461153501,0.001953521281
8.274501292,-0.0001318569994,-0.001078744419,0.0005846156273,0.001234038582
8.284496375,0.0001597590744,-0.0007469146512,0.0006141766207,0.0009801109017
8.294491375,-0.001865356229,0.0003618472256,0.001207404071,0.002251291156
8.304486375,-0.0002783784876,-0.001848310232,0.0008537364192,0.002054899309
8.314481375,-0.002056405647,0.002501415787,0.001126921969,0.00342867879
8.324476375,0.001518355566,0.0009234928293,-0.0006989412359,0.00190964957
8.334470375,-0.001910492196,0.001080939663,0.0004985549022,0.002250992664
8.344465375,0.001407540287,0.0002777301706,0.000548089738,0.001535807953
8.354460375,-0.001967328135,-0.001947239274,-0.001615319867,0.003204899227
8.364455375,-0.001254932489,0.0007191175828,0.001302439487,0.001946364372
8.374450375,0.0005351991858,-0.001351728104,-0.0005520276027,0.001555101768
8.384445375,-0.0005250051618,-0.001025490928,0.002201414667,0.002484650599
8.394439375,0.0008553807857,0.0004903250374,0.0006816849345,0.001198661454
8.404434375,-0.001574753784,-0.0008798711933,-0.002209442668,0.002852307785
8.414429375,0.00008336768951,-0.001260407735,0.0003051601816,0.001299500121
8.424424375,0.0005664650816,-0.0005570668727,-0.0005750145065,0.000980738432
8.434419375,0.001690334408,0.0008653358091,-0.001241126098,0.002268574544
8.444414375,0.0001233303919,0.00136095006,0.0004374643322,0.001434841627
8.454408375,0.001805191976,0.002433022717,0.0008193819085,0.00313842386
8.464403375,0.0004171525361,0.001714235637,-0.001675200998,0.002432882743
8.474398375,0.0002199097071,-0.001939260401,0.002564733382,0.003222878915
8.484393375,0.0001424117945,-0.002071619499,-0.001585536869,0.002612626195
8.494388375,0.001223147381,-0.001225703163,0.0002761220094,0.001753476867
8.504383375,-0.0009880752768,0.0006401074352,0.0002119399142,0.001196222725
8.514377375,-0.0007006238448,0.0008400602965,0.002981711179,0.003176031585
8.524372375,0.0004453342408,-0.0009075060952,0.002097541466,0.002328426529
8.534367375,0.0002131455112,-0.002012281446,-0.001717979321,0.002654460505
8.544362375,-0.001212977106,-0.002590453485,-0.0004095682525,0.002889551673
8.554357375,0.0001956396736,0.0008313057479,0.003525678301,0.003627637194
8.564352375,0.001831086818,-0.0009503490292,-0.0003303125268,0.002089293799
8.574346375,0.0004146174761,-0.001830697525,-0.001376265194,0.002327545266
8.584341375,-0.0007632987108,0.00157388777,0.0005771635333,0.00184197323
8.594336375,0.001379077556,-0.001400816487,0.0005289198598,0.002035656639
8.604331375,-0.001807128196,0.0008876377251,-0.001023703022,0.002258667953
8.614326375,0.002118474105,0.000288664829,0.000355454511,0.002167396555
8.624321375,-0.001029115752,0.002141159726,0.0007978056092,0.00250602035
8.634315375,-0.001374783693,-0.0001492698211,0.0008178403368,0.001606603404
8.644310375,-0.0009840980638,-0.00127791753,-0.0002237219596,0.001628365355
8.654305375,0.0005592623493,-0.0008455032948,0.001189673087,0.00156300104
8.664300375,-0.0006341001717,0.0003483917098,-0.0006827954203,0.0009948212891
8.674295375,0.0004773974651,0.0001638715621,0.001454033889,0.001539148069
8.684290375,-0.00193462742,-0.0004001858179,0.001482529799,0.002469985131
8.694284375,0.0003557458986,0.0001852186397,0.0006440496072,0.0007587232601
8.704279375,0.001423140755,0.0006653866731,-0.000815629086,0.001770118595
8.714274375,0.002250594553,-0.0002108297776,-0.0005122417351,0.002317761125
8.724269375,-0.001059714938,-0.001801535953,0.003435894847,0.00402167887
8.734264375,0.001322231605,0.001626604935,-0.001455721445,0.002552109903
8.744259375,0.00009664497338,0.0006263216492,0.0003922460601,0.0007453026437
8.754253375,0.00095416361,0.0005238292506,0.001701408415,0.0020198059
8.764248375,0.0004257924156,0.001034090878,-0.0005963669391,0.00126739759
8.774243375,0.001336765825,0.0001088925637,-0.0001816356089,0.00135343709
8.784238375,0.003397786058,-0.001749194926,-0.00005540181883,0.0038220024
8.794233375,0.0006665324327,-0.0001005935483,-0.000008241040632,0.0006741308927
8.804228375,-0.001082631759,-0.0009301682003,-0.001643421827,0.002176726834
8.814222375,-0.0003083038609,-0.0008119023405,-0.001775332843,0.001976371267
8.824217375,-0.00117063534,0.001271488494,0.002446043771,0.002995029252
8.834212375,0.002222562442,-0.001401926391,-0.000269186683,0.002641522834
8.844207375,-0.00001875404269,0.00209799991,-0.00004201906268,0.002098504453
8.854202375,0.001549066044,0.00006961356848,-0.002584100002,0.00301363974
8.864197375,0.00005236966535,-0.001798061421,0.001768304151,0.00252243276
8.874191375,0.000469406019,-0.000916281715,0.00006089592353,0.001031320758
8.884186375,-0.0001130272867,0.0007106434787,-0.0005590879591,0.0009112456679
8.894181375,0.001730906661,-0.001728050644,0.0007648285246,0.002562646984
8.904176375,-0.002127747517,-0.001241757534,0.001984023489,0.003163166211
8.914171375,-0.001898817369,0.001324537792,-0.001253323746,0.002632627618
8.924166375,-0.0004465956008,-0.0005905414,0.001607443788,0.001769763348
8.934160375,0.0005500848638,-0.0008794902824,0.00141799415,0.001756930256
8.944155375,0.0002022761619,0.001370348269,0.0005183782196,0.001479015214
8.954150375,-0.0004043919034,-0.0006873654202,0.00131310639,0.001536311304
8.964145375,0.001500034705,0.002404298168,0.00008485640865,0.00283512864
8.974140375,0.0008653316181,-0.001297654118,-0.00134660094,0.002060591933
8.984135375,0.0006618660409,0.0000179472845,-0.001825437299,0.001941805885
8.994129375,-0.002312785713,0.001002223929,0.002227474935,0.003363788808
9.004124375,-0.001305844402,0.00009781448171,0.001190173673,0.001769550973
9.014119375,0.001672448241,0.001292198896,-0.001720321132,0.002725135942
9.024114375,0.001639425172,0.001466635964,0.001782268402,0.002831115788
9.034109375,-0.001395393163,-0.0001630713232,0.00175652653,0.00224924427
9.044104375,-0.001640670351,-0.002953265328,-0.0006395194214,0.003438395031
9.054098375,-0.002783262171,-0.002181728138,-0.0008566095494,0.003638717617
9.064093375,0.001170733012,-0.000795552507,0.003189264797,0.003489259165
9.074088375,0.0002123413142,0.002020503394,0.0008986926405,0.002221524536
9.084083375,0.0003582825884,-0.0002602275927,-0.0001585823484,0.0004703543073
9.094078375,-0.0004785993369,-0.0007726307958,0.00007167411968,0.0009116758478
9.104073375,-0.001050912659,-0.001944954507,-0.0002484378638,0.00222463184
9.114067375,-0.00201701303,0.001498776954,-0.0008100590203,0.002640240432
9.124062375,0.0003715761704,0.00038371142,0.002209166531,0.002272822048
9.134057375,-0.0001352997497,-0.002195514506,0.001145904069,0.002480259281
9.144052375,0.0005864168052,-0.002396849683,-0.0017420277,0.003020502206
9.154047375,-0.000137168332,-0.0002948595211,-0.0008958018152,0.0009530048167
9.164042375,0.0003917355789,-0.0007105788682,0.002348194597,0.002484430912
9.174036375,-0.00003841973376,0.00214122422,0.0007421027403,0.002266502529
9.184031375,0.001224983949,-0.0005413778126,-0.0001170330215,0.001344385488
9.194026375,-0.0008861836395,-0.001650810242,0.0009857122786,0.002117102877
9.204021375,0.00179029326,-0.0003357415553,0.0008176667616,0.001996609947
9.214016375,-0.0004242247669,0.0007999335648,-0.001431502285,0.00169382973
9.224011375,0.0009670106228,-0.001168142539,-0.0001073785825,0.001520262048
9.234005375,-0.0006636560429,0.0006176700117,-0.00002200715244,0.0009068847233
9.244000375,0.00001837953459,0.0007670733612,0.001184404828,0.001411224342
9.253995375,-0.00009287672583,0.001345589873,0.001712237136,0.002179677545
9.263990375,0.001683717943,0.001438267878,0.0005532294745,0.002282451194
9.273985375,0.0005647419021,0.001128802891,-0.0001097618369,0.001266955817
9.283980667,-0.0008097154205,0.001134395483,-0.0003619632917,0.00143996861
9.293974667,-0.002130864887,0.001721342793,-0.00227589719,0.003561364092
9.303969667,0.0003754360368,-0.0005969388876,0.001082082512,0.001291584614
9.313964667,0.0004344164627,-0.0009367086459,0.0002468355233,0.001061634836
9.323959667,0.0002261573682,-0.000167587772,0.0001565543935,0.0003220901964
9.333954667,0.001091397833,0.001326312777,0.00006068416405,0.001718702237
9.343949667,0.00065144361,0.00164695736,0.0004353908589,0.001823845532
9.353943667,0.0002397537464,-0.002074708464,-0.001423499547,0.002527498374
9.363938667,0.001382516115,-0.00147789414,0.0005357881309,0.002093463833
9.373933667,0.001983846305,0.001795947785,-0.0008219461888,0.00279940532
9.383928667,0.001356405672,0.000690735993,-0.0004621531116,0.0015907665
9.393923667,-0.0004969286965,0.001552736619,-0.001331477193,0.002104937209
9.403918667,0.0003462281311,0.002425454557,-0.00123800023,0.002745058888
9.413913667,-0.001102402573,-0.00002537760884,-0.000397320604,0.001172091771
9.423907667,0.0003615372116,0.001457204111,-0.0004836070584,0.00157734865
9.433902667,0.00001364795025,0.0007750365185,-0.00141438283,0.001612869078
9.443897667,0.00121899473,0.001308467705,-0.0002130309585,0.001800949215
9.453892667,-0.00181463419,-0.0004883236252,0.001254329924,0.002259358485
9.463887667,-0.0008172803791,0.002054995159,-0.001148374053,0.002491930032
9.473882667,0.001155354665,-0.001646686578,0.0008954000659,0.002201854302
9.483876667,-0.001349614467,0.001182655804,0.0000490474049,0.001795143339
9.493871667,-0.002431787085,0.001171207288,0.0005541756982,0.002755435654
9.503866667,0.0003557436867,-0.0004570493475,-0.000006685964763,0.0005792170394
9.513861667,0.001499648672,-0.00001141475514,0.00002145383041,0.001499845559
9.523856667,0.0009896534029,-0.0006745418068,-0.000481883646,0.00129098116
9.533851667,0.000431300723,-0.000267626252,-0.001579601318,0.001659151725
9.543845667,0.000553806196,0.003583304584,-0.0003023492172,0.003638432093
9.553840667,0.001964219846,-0.0008962873835,-0.0007067024126,0.002271765608
9.563835667,0.0009711273015,0.0005119921407,-0.001905124867,0.002198800798
9.573830667,-0.002269681077,-0.0003143141512,0.001258613076,0.002614259447
9.583825667,-0.001080313465,-0.0007659862749,0.001542772399,0.002033213917
9.593820667,0.001601096243,-0.002113911323,-0.001751564909,0.003178067005
9.603814667,-0.000760594965,-0.0001434385777,-0.001868211315,0.002022200001
9.613809667,-0.001560334349,0.0009361030534,0.0003701348323,0.001856860792
9.623804667,0.002573956735,0.0001392853446,-0.001787025598,0.003136576824
9.633799667,0.001334549626,-0.0003857759293,0.001007476239,0.001716057734
9.643794667,0.0002535725944,0.00153942313,0.0001331605017,0.001565839824
9.653789667,0.001316651702,-0.002740988741,-0.00244727172,0.003903297305
9.663783667,-0.0015718129,0.002268949756,-0.0007926498656,0.002871762977
9.673778667,0.003374212189,0.00003814836964,-0.0002957792021,0.003387366016
9.683773667,0.0003635084722,-0.000143479323,0.002079227939,0.002115635495
9.693768667,-0.0008008617442,-0.002252932172,-0.001393265673,0.002767358333
9.703763667,-0.001163850655,0.0000837254338,0.0005537712714,0.001291596267
9.713758667,0.0003660661168,-0.0004081812222,-0.000199113274,0.000583320159
9.723752667,-0.00125073886,0.001003560377,0.000879999483,0.001829174737
9.733747667,0.0004992592148,-0.00014443486,-0.00004370976239,0.0005215666168
9.743742667,-0.00170876761,-0.00202169735,0.0005230109673,0.002698274892
9.753737667,-0.0009390721098,0.0001537294593,0.0001077464549,0.0009576525845
9.763732667,-0.0007156329229,0.0006378920516,-0.0001822717022,0.0009758379596
9.773727667,0.0005125163589,0.00006516091526,-0.0005948349717,0.000787875375
9.783721667,-0.002713636961,0.000105907442,0.002914944664,0.003983960885
9.793716667,-0.001242401544,0.001556351315,-0.00148691237,0.002485296644
9.803711667,0.00001194723882,-0.001177383354,-0.001483982895,0.001894354647
9.813706667,0.00221050391,-0.000253893435,0.0002575564431,0.002239893911
9.823701667,-0.001231631963,0.002292088699,0.001220555627,0.002874081407
9.833696667,0.001788040157,-0.0008668780793,0.00008743384387,0.001989022344
9.843690667,-0.001275660237,0.00243837107,-0.002713412512,0.003864656515
9.853685667,0.0004296218976,0.0005515232915,0.001712628524,0.001849824147
9.863680667,0.0004589166492,0.0005685674259,-0.0006075173151,0.0009502371793
9.873675667,0.0003959112801,0.0002009221353,0.0003400554415,0.0005592433722
9.883670667,-0.0006054373225,-0.0007354454137,0.00221598614,0.002412059054
9.893665667,0.001192019088,-0.001856971066,-0.001777819358,0.002833706533
9.903660667,-0.0002679257886,0.0007049897686,-0.0007642203127,0.001073698043
9.913654667,-0.0001912134467,-0.0007487162948,0.001044452307,0.001299237966
9.923649667,-0.0009422248695,-0.0005244780332,0.001161098829,0.001584618378
9.933644667,0.001108555822,0.002201185562,0.00001247355249,0.00246460331
9.943639667,0.0004086771514,0.001855507144,0.0002745286329,0.001919710849
9.953634667,0.0004478774499,-0.00009635230526,0.002433855552,0.002476596622
9.963629667,-0.0003156508319,0.003407302313,-0.00010600104,0.003423533367
9.973623667,0.00173234893,0.0004016374005,-0.003882444464,0.004270330248
9.983618667,-0.001051719533,0.002580369357,-0.001666961005,0.003247026176
9.993613667,-0.0007708107587,-0.002330937656,-0.001116311643,0.002696955926
10.00360867,-0.003247817047,-0.001747173024,-0.0006044520414,0.003737150173
10.01360367,0.001957258442,-0.002382522449,-0.0005121689755,0.003125634478
10.02359867,-0.0005911203334,-0.003168953583,0.001590130269,0.003594468574
10.03359367,-0.001073345542,-0.003343528369,0.001117702923,0.003685174682
10.04358767,0.001151725417,0.003533286275,0.002151009161,0.00429388213
10.05358267,0.001506529748,-0.0008595958352,-0.0005433020415,0.001817612167
10.06357767,-0.00231936737,-0.002172800712,-0.001740925596,0.003623720445
10.07357267,-0.000848931144,0.00125754287,0.001467631198,0.002110933322
10.08356767,0.001673082355,0.0001022636425,-0.001602460747,0.002318952967
10.09356267,-0.001498781843,-0.0002340429928,0.0002490541665,0.001537254408
10.10355667,-0.0004819869064,0.0002360048238,0.0009246981936,0.001069147513
10.11355167,-0.000272333622,-0.001976699801,0.0011341637,0.002295176465
10.12354667,0.002272050362,-0.0007306067273,0.001995430095,0.003110906669
10.13354167,-0.0007647760212,0.0006635288009,-0.0007096774643,0.001236444473
10.14353667,0.001663227798,-0.001524524298,-0.002255109837,0.003189987684
10.15353167,-0.00008271553088,-0.0002433217596,0.0003349055769,0.0004221481768
10.16352567,-0.000742114149,0.0000293860212,0.0004595415667,0.0008733701391
10.17352067,0.0001722576562,0.001057358109,-0.001586196013,0.001914078541
10.18351567,-0.0001531806774,-0.001969324425,0.001031957683,0.002228595897
10.19351067,-0.003077142406,0.001515215612,-0.001421454246,0.00371284472
10.20350567,0.0004238490947,-0.00009626313113,0.001185247791,0.001262428997
10.21350067,-0.001175551675,0.0009354656795,-0.0008571024518,0.001729636491
10.22349567,-0.002361457329,-0.002370848553,0.0005455844803,0.003390437436
10.23348967,-0.001010805136,-0.001825138228,0.001101323753,0.002359188543
10.24348467,-0.0005740467459,-0.002622755012,-0.0008667522343,0.002821282147
10.25347967,0.0002116868272,0.001176858786,-0.002165345941,0.002473566445
10.26347467,0.0002939784899,-0.0005406138953,0.001690911362,0.001799407672
10.27346967,0.0008985107997,-0.0004683348816,-0.002678264398,0.002863522203
10.28346454,-0.001916716807,-0.0008819238283,0.0006157994503,0.002197908533
10.29345854,-0.001977104461,-0.0002763825469,0.001321453485,0.00239406948
10.30345354,0.0006445113104,0.00002988101915,0.0000404730672,0.0006464717888
10.31344854,-0.0003420246067,-0.002428352833,-0.002709808992,0.003654715185
10.32344354,-0.000134031754,-0.00202488387,0.00002206163481,0.002029434876
10.33343854,-0.0004208043683,0.002291788813,0.001405145158,0.00272099342
10.34343354,0.002622389933,0.0004725834588,-0.0002156547271,0.002673344543
10.35342854,-0.00159374089,0.0004360042512,-0.0005272011622,0.001734373315
10.36342254,0.001314697438,0.001298602205,0.001170830219,0.00218761067
10.37341754,-0.0003495644778,0.001972892089,-0.001607278828,0.002568626821
10.38341254,0.0003700215602,-0.001310519176,0.001903832657,0.002340716824
10.39340754,-0.003179921303,0.0007580209058,0.002240093891,0.003962892356
10.40340254,0.0007953791646,0.001540990197,0.001152991434,0.002082466818
10.41339754,-0.001535886782,0.0007653874345,-0.0007014856674,0.001853873856
10.42339254,0.0008210106753,-0.0002468801104,0.0002790902508,0.0009016094975
10.43338654,0.0005031498149,0.001383444644,0.0001208070898,0.001477048805
10.44338154,0.001390248537,-0.0004128573928,0.002231362276,0.002661244038
10.45337654,0.00102521223,0.0001967588905,-0.0007547665155,0.001288195121
10.46337154,0.0003508999944,-0.0007409402169,0.0009238239145,0.001235141221
10.47336654,-0.0001995030325,0.0004216928501,-0.0004121421371,0.0006224849082
10.48336154,0.00207749987,-0.00009815627709,-0.0001013512956,0.002082285391
10.49335554,-0.003099170979,-0.002225417178,-0.001789400587,0.004214178073
10.50335054,0.0007794570411,0.0006369482726,-0.0001355775166,0.001015695645
10.51334554,-0.001278767362,-0.001308977138,-0.0001667023171,0.001837513749
10.52334054,0.001372675761,-0.001839478966,-0.001894827583,0.00297628849
10.53333554,-0.00006529164966,-0.000365175074,0.0002555412939,0.0004504633027
10.54333054,0.0003626781981,0.0000209833961,0.001264080405,0.001315247144
10.55332554,-0.00142887875,-0.001305780374,-0.001704333001,0.002579051733
10.56331954,0.0003929897211,-0.0005044350401,-0.0009719636873,0.001163447051
10.57331454,-0.0003801386338,-0.0004546362907,-0.0005080736009,0.0007806012565
10.58330954,-0.001267770305,-0.001760916784,-0.0004239176633,0.002210831439
10.59330454,0.001048097853,-0.002103234408,0.0004069326678,0.002384889574
10.60329954,-0.00140520616,0.0003508686787,0.001219463069,0.001893357694
10.61329454,-0.002652053023,0.000326316338,0.0007373292465,0.002771916666
10.62328954,-0.0004932946758,-0.0004947360139,-0.001321826829,0.001495101845
10.63328354,-0.001413200865,0.0008210572414,0.0009077315917,0.001869558323
10.64327854,-0.0007996085333,0.001615478192,-0.002331204945,0.002946805065
10.65327354,0.001444007736,-0.001427494455,-0.001285317005,0.002403110185
10.66326854,-0.00003537815064,0.001503580716,0.0010081972,0.001810654074
10.67326354,0.00004417181481,0.001364259748,0.001908075181,0.002346040644
10.68325854,0.001186135341,0.0002912720665,-0.0001268461347,0.001227943975
10.69325354,0.00004335353151,0.0004099241924,0.00008015148342,0.0004199305091
10.70324754,0.001314480323,-0.0002220438328,0.0007669806946,0.001537992643
10.71324254,-0.00007342128083,0.0006196516333,0.0003028919455,0.0006936154279
10.72323754,-0.001827379223,-0.0007641268894,-0.0009067158098,0.002178379739
10.73323254,0.001569320448,0.001949037658,0.001099726534,0.002733297077
10.74322754,0.001656405628,-0.00127365347,-0.00008830951992,0.002091332431
10.75322254,-0.0008170935325,-0.0001691307407,-0.0003587703686,0.0009082748624
10.76321754,0.0004766699858,-0.002037604572,-0.0004394641146,0.002138264571
10.77321154,-0.0009695097106,-0.00003636954352,-0.0004234667867,0.001058582043
10.78320654,-0.0009868202033,0.0001969235018,-0.0001092137536,0.001012186061
10.79320154,0.0001630635234,0.001074763597,-0.0005585753825,0.001222175503
10.80319654,0.001087713172,-0.001709837699,-0.001367910067,0.002444962751
10.81319154,-0.0004280317808,-0.00202281354,0.0006217530463,0.002159065231
10.82318654,0.001150157535,-0.003226296045,-0.001071218401,0.00358878216
10.83318054,0.002367612906,-0.0007834455464,-0.001079842797,0.002717616283
10.84317554,-0.001372264232,0.001199544291,0.0006701202365,0.001941926044
10.85317054,0.0003472196404,-0.001804669388,-0.001891063526,0.002636951713
10.86316554,0.00007717497647,0.0003330500331,0.001003792509,0.00106041393
10.87316054,-0.00006941065658,0.0003129167017,-0.0005662626936,0.0006506828257
10.88315554,0.0008778758347,0.002676738659,0.0004382816842,0.002850909796
10.89315054,0.002387782326,-0.0002203888725,0.0001729424112,0.002404159888
10.90314454,0.000170168234,-0.0008869778831,0.000443785917,0.001006296643
10.91313954,0.002345448826,-0.001185973408,0.001277058851,0.002922078443
10.92313454,0.0003968139645,-0.001559881493,-0.002271336969,0.002783821694
10.93312954,0.002529742662,-0.0007455316372,0.002228328492,0.003452660312
10.94312454,-0.000981368823,-0.000938344514,0.00041152013,0.001418775532
10.95311954,0.0002650332171,-0.0003804180305,-0.0009711323655,0.001076131291
10.96311454,0.001290350221,0.00236157258,0.001162059605,0.002931281507
10.97310854,0.001447302755,0.0005068547325,-0.0003047484206,0.001563476442
10.98310354,0.001200427534,0.00036490825,-0.0013329949,0.001830589986
10.99309854,0.001570766326,-0.001087742159,-0.002334619639,0.003016776213
11.00309354,-0.001991477795,0.0002286583185,0.0009306822903,0.00221007646
11.01308854,0.0007403837517,0.0007017207099,0.000259348657,0.001052540631
11.02308354,-0.00110438792,-0.001594989561,-0.002810210921,0.003414813289
11.03307854,0.0004064359237,0.0005002903054,0.001875950256,0.00198360024
11.04307254,0.001379821217,-0.001035022084,0.0006988330279,0.001861060156
11.05306754,-0.0002805492841,-0.0006513318513,-0.001942968811,0.002068349313
11.06306254,-0.001666458324,0.000282372348,-0.0004473376321,0.001748407402
11.07305754,0.001539381919,-0.001744115027,0.002044621157,0.003097113106
11.08305254,-0.001253208844,0.001775252284,0.001869917847,0.002866818068
11.09304754,0.0002883332781,0.001912681386,0.0001039208146,0.001937081748
11.10304254,-0.0005795910256,-0.0009145303629,0.00003148289397,0.001083181755
11.11303654,0.0001511070877,-0.0008810760919,-0.0002911110641,0.0009401457777
11.12303154,-0.003043887205,-0.00008931825869,-0.0001478330232,0.003048783638
11.13302654,0.0001149252057,-0.0004274586681,-0.002732636407,0.002768254043
11.14302154,-0.001978319371,0.003775275778,-0.001594667672,0.004550760345
11.15301654,0.001967305318,0.0000589392148,0.0009244764224,0.002174493205
11.16301154,-0.001926502446,0.001772416988,-0.001299263095,0.002922491787
11.17300554,0.0008025215939,0.0001540479716,-0.001475977013,0.001687092122
11.18300054,-0.001974622719,-0.0003327778541,0.001446575858,0.002470315303
11.19299554,-0.0008606817573,-0.001531183952,-0.00009992404375,0.00175934141
11.20299054,-0.0007171374746,-0.0009868338238,-0.001427509822,0.001877741048
11.21298554,0.001343879849,-0.0013091336,0.001075339271,0.002162451937
11.22298054,-0.001308894833,-0.00215095887,0.0009160821792,0.002679372371
11.23297554,0.0009585544467,-0.001412117388,-0.001004520338,0.001980394722
11.24296954,0.0009915777482,0.002203656361,0.0004980351077,0.002467258956
11.25296454,-0.001203526626,0.001001334284,0.0003067036159,0.00159537262
11.26295954,-0.0005281489575,-0.001838394208,-0.001963374903,0.002741071979
11.27295454,-0.001014557085,-0.0004306982737,-0.001301999437,0.001705880891
11.28295042,-0.001886476064,-0.001135637052,0.001187257236,0.002501608123
11.29294542,0.0009876682889,-0.001254383009,-0.001632561674,0.00228346732
11.30294042,-0.0001913132146,0.001629820326,-0.0002122978913,0.001654685903
11.31293442,0.000434052432,0.001256815856,0.0007077865303,0.001506303217
11.32292942,-0.00163735426,-0.001633246429,0.000635082135,0.002398281091
11.33292442,0.0005767436232,0.001431334764,0.0001515513286,0.001550587056
11.34291942,-0.001702922164,0.00155277492,-0.0004737589043,0.002352764618
11.35291442,0.00003731204197,-0.0002619603183,0.0008929440519,0.0009313240449
11.36290942,0.002459190553,-0.0008403989486,-0.0006642061635,0.002682360602
11.37290442,-0.0002806498669,0.001099997782,0.0006883344613,0.001327615833
11.38289842,-0.002301722765,0.002098949393,0.001130152727,0.003313723197
11.39289342,0.0004322682507,0.000753070577,0.0008541132556,0.001217982179
11.40288842,-0.002070304239,0.0007469452685,-0.001584010781,0.002711674212
11.41288342,0.0005879814271,0.001668089186,0.0008219777374,0.001950356657
11.42287842,0.0002995610703,-0.0008930729236,0.0009881592123,0.001365201344
11.43287342,0.0002605831251,0.0002316590399,-0.003592462279,0.003609342697
11.44286842,-0.0009357087547,-0.0006242808886,-0.002328525996,0.002585983529
11.45286242,0.0008128116606,-0.0002099522389,0.001219912432,0.001480854173
11.46285742,0.0003811133793,-0.0006315305363,-0.00157933624,0.001743095289
11.47285242,0.0003610111307,0.001127470168,-0.001863422804,0.002207682623
11.48284742,0.001387126977,0.001817761455,0.0008034666535,0.00242362056
11.49284242,0.0005156296538,0.001322448836,0.0007920415374,0.001625445988
11.50283742,0.0002056377707,0.00167904608,-0.0001318091527,0.00169671927
11.51283242,0.001760285115,-0.0008718390018,-0.001800297876,0.002664541119
11.52282642,0.001047356986,-0.00081085274,-0.001101218164,0.001722533096
11.53282142,0.0004030786222,-0.0001617118251,0.000159380259,0.0004626285302
11.54281642,0.002089658286,0.0003384298179,-0.002113627736,0.002991425864
11.55281142,-0.001381230657,0.001877762727,0.00181579683,0.00295481118
11.56280642,0.0009988363599,0.0003301999532,0.0006916765124,0.001259016474
11.57280142,0.00000005785841495,-0.00100465212,-0.001079731155,0.001474837365
11.58279642,-0.0003493488766,-0.0008850763552,0.0004577117506,0.001055890543
11.59279042,-0.001503528794,0.00002421927638,0.0005021329271,0.001585346298
11.60278542,0.0005090219202,-0.0003944297787,-0.000518390385,0.0008266841941
11.61278042,0.00000762718264,0.001736571663,-0.001797105069,0.002499065014
11.62277542,0.001368768746,-0.0009542861953,-0.00164716912,0.002344644138
11.63277042,0.0006575237494,-0.002775912406,-0.0017269362,0.00333471675
11.64276542,0.0003368791658,0.001620966708,0.0006541960174,0.001780166585
11.65275942,-0.00009887083434,-0.0001633444335,0.002005305141,0.002014374731
11.66275442,0.000880373409,-0.0005295290612,-0.001128170174,0.001525852649
11.67274942,0.001514580334,-0.002683652332,0.001153008197,0.003290193206
11.68274442,0.00007913657464,-0.001657802844,-0.0003732494079,0.001701143142
11.69273942,0.0007586367428,-0.001512960764,0.002017111983,0.002633119962
11.70273442,0.000284594018,-0.0006764619611,-0.0007403250784,0.001042437414
11.71272942,-0.0002163160825,-0.0001329535153,-0.002858046442,0.002869302834
11.72272342,-0.0002863572445,-0.001653085928,-0.0002577358391,0.001697386615
11.73271842,0.0003891757224,-0.0005341283977,0.000271774712,0.0007145714675
11.74271342,-0.00006622483488,-0.0005972452927,-0.001516537974,0.00163124955
11.75270842,-0.00214362191,-0.0004277196713,0.002158259274,0.003071830416
11.76270342,0.001838070108,-0.001301502809,-0.0001126182033,0.002255015331
11.77269842,0.001720899018,-0.001790934475,-0.000143216108,0.002487860642
11.78269342,0.0005256722216,-0.0005413792096,-0.00021378987,0.0007843014992
11.79268742,-0.001359722344,0.001746765804,0.001100536785,0.002472087547
11.80268242,0.001203037566,-0.0002620567102,-0.000227315235,0.001252056436
11.81267742,-0.0008458854863,-0.0009838303085,-0.002300123451,0.002640835516
11.82267242,-0.001071987906,-0.0004629159812,0.001521246275,0.001917717264
11.83266742,-0.0006420800928,0.00182904047,-0.0006340167602,0.002039517869
11.84266242,-0.002553430852,-0.001249041175,-0.00002202228643,0.002842639258
11.85265742,-0.001941392897,0.001258374075,-0.0009401043644,0.00249726008
11.86265142,0.00007968000136,0.0006751418114,0.00241095107,0.002504965156
11.87264642,-0.001421996159,0.0004143051337,0.0002055563964,0.001495317777
11.88264142,0.0006781725679,-0.002280281391,0.0007515043253,0.002494866731
11.89263642,-0.0006765726721,-0.001034711022,0.002258518711,0.002574739646
11.90263142,-0.00003341934644,-0.0009199287742,0.0001860467019,0.0009391481127
11.91262642,0.0002805152908,-0.0008851748426,0.0001120296074,0.0009352935171
11.92262142,0.002741808537,-0.0004193878267,-0.0005867839209,0.00283508652
11.93261542,0.001599050593,-0.0004503764212,0.001984711969,0.002588220106
11.94261042,-0.0003823412117,0.0003530993126,-0.0009865768952,0.001115436191
11.95260542,-0.002172598615,-0.001284913393,-0.0004994497285,0.002573059891
11.96260042,0.0001083988464,0.0003667790443,-0.000566028757,0.0006831293662
11.97259542,0.0002925985027,-0.00002496433444,0.0001010281267,0.0003105539956
11.98259042,0.0003868744243,0.001188105554,-0.001988488017,0.002348478491
11.99258542,0.002590276767,-0.0002337654587,0.001686201198,0.003099589408
12.00257942,-0.0002643658081,0.00113616453,-0.0004579097731,0.001253172167
12.01257442,-0.0006972833071,0.001409591991,-0.0007788701914,0.001754933721
12.02256942,-0.00188984687,0.0008585839532,0.0006163598737,0.002165314548
12.03256442,0.001177754602,0.001713803038,0.0007049088599,0.00219570564
12.04255942,0.001273894799,-0.000793563202,0.0001629556064,0.001509670508
12.05255442,-0.0006391890347,-0.00107750902,-0.000245791045,0.001276715139
12.06254942,-0.002260787878,0.002454108791,0.001000301912,0.003483448824
12.07254342,0.002590534743,0.00198506657,0.001438671141,0.003566669903
12.08253842,0.000215527718,0.00178692746,-0.0006836018292,0.001925324234
12.09253342,0.0003060246818,0.001425360912,0.001141338376,0.001851474581
12.10252842,-0.0009299484082,-0.001248186454,0.004542195238,0.004801490503
12.11252342,0.0003011743538,-0.001230377238,0.00008802220691,0.001269756689
12.12251842,-0.002108187648,0.0002902878914,0.002344518434,0.003166305245
12.13251342,0.0004621797707,0.0006940865424,-0.00006103515625,0.000836116953
12.14250742,-0.001412419369,-0.001175452489,0.001055894652,0.002119323134
12.15250242,0.0004157426301,-0.001080149552,-0.001563366968,0.001945168699
12.16249742,0.001647188328,0.002694082214,-0.00256764493,0.004069902805
12.17249242,-0.0004237809917,0.001381172915,0.0001894686138,0.001457095503
12.18248742,0.001625521574,0.00116865267,0.0006126449443,0.002093657871
12.19248242,0.0008098203689,-0.001288327156,-0.001599738607,0.002207885754
12.20247742,0.00001726369374,-0.0001085468102,-0.00219548773,0.002198237207
12.21247142,-0.0006771888584,0.00003324169666,0.0001163308043,0.0006879117795
12.22246642,0.001548414817,-0.0001662289724,0.0008825223194,0.001789990548
12.23246142,0.0002868070733,-0.0009070534725,0.001073737512,0.00143454402
12.24245642,-0.003639491275,-0.0003736221697,0.002771502826,0.004589849473
12.25245142,0.000355965225,-0.002183510456,-0.0008658031002,0.002375719715
12.26244642,-0.0007172885817,-0.0006689706352,-0.00121707411,0.001563103966
12.27244042,-0.00007044628728,-0.000819259556,0.0007138466462,0.001088910434
12.28243504,-0.003512049327,0.0005288325483,-0.001185786212,0.003744361531
12.29243004,0.0004059745697,0.0006230314029,0.001996801235,0.002130774191
12.30242504,-0.002107782988,0.0006789577892,-0.0003172192955,0.002237042888
12.31242004,-0.000546780997,0.0004943178501,0.0001488791313,0.0007519870952
12.32241504,-0.003386243246,0.001133210259,0.002272750251,0.004232753539
12.33241004,-0.0008150329813,0.0009779653046,0.002236293862,0.002573267404
12.34240404,0.001806849032,-0.001386389136,-0.002051661722,0.003065304892
12.35239904,0.0005490691401,-0.000766500365,-0.001158927102,0.001494025354
12.36239404,0.0007045976818,-0.002136163879,0.0001928934362,0.002257623062
12.37238904,0.0004321571905,0.0004042799119,0.0003372826613,0.0006811473248
12.38238404,0.0003149779513,-0.0001861429773,0.0009793707868,0.001045479534
12.39237904,0.0007041263161,-0.0009722863324,0.0004356477875,0.001277076183
12.40237404,-0.0008780577919,0.001232811133,0.001668424928,0.002252654105
12.41236804,-0.001202529063,0.0006934253033,0.0002076295204,0.001403575726
12.42236304,-0.001624107361,-0.0001079200301,-0.002586292569,0.003055860059
12.43235804,-0.0004424364306,0.001137237996,-0.001662226161,0.002062051421
12.44235304,0.001121105393,0.0001516020857,0.001508000772,0.001885186151
12.45234804,-0.00173436082,0.001767597743,-0.0001289306674,0.002479724249
12.46234304,0.001457171515,0.001434968901,0.0001935781911,0.002054253413
12.47233804,-0.00001779664308,0.002874084283,0.004202145152,0.005091041255
12.48233204,0.001559593715,0.001270595007,0.0004470878048,0.002060735726
12.49232704,-0.0009272292955,0.003440157976,0.00004625204019,0.003563226111
12.50232204,0.0002221909817,-0.002894969657,0.002288101008,0.003696704529
12.51231704,0.0006242523668,0.001607497688,0.002427926287,0.002978013749
12.52231204,-0.0005973397056,0.001165146707,0.001907811034,0.002313898121
12.53230704,-0.001291997731,-0.002018933184,0.0002208823571,0.00240710165
12.54230204,-0.0007561697857,-0.0002535234671,0.0000395210227,0.0007985166276
12.55229604,0.0008025403367,-0.001108770259,0.0001937221969,0.001382378663
12.56229104,0.0005516704405,-0.001156440703,0.002366062719,0.002690715178
12.57228604,-0.001650896273,0.001186832087,-0.000429236854,0.00207804552
12.58228104,-0.000662064529,0.00005392334424,-0.0003594620503,0.0007552814927
12.59227604,-0.0000638726633,-0.0002384707332,0.0007450184785,0.0007848570194
12.60227104,0.001386218471,-0.000478687929,-0.0009607362445,0.001753213597
12.61226604,-0.0004769207444,-0.0009804968722,0.001383449766,0.001761465517
12.62226004,0.00160593749,0.001830469701,0.001228720299,0.00272752784
12.63225504,-0.001669993857,0.0007446105592,-0.0004865984665,0.001892115862
12.64225004,-0.0001479972852,0.0005757662002,0.001920366427,0.002010277873
12.65224504,-0.002003627596,0.002751864027,0.0009351389017,0.003530122368
12.66224004,-0.0007591324393,0.0002303831279,-0.0008433201583,0.001157820079
12.67223504,-0.0003166820388,-0.000006939982995,-0.0001744318288,0.000361610481
12.68223004,0.002789096441,-0.001408295473,0.0009840433486,0.003275774169
12.69222404,-0.00009182281792,-0.00008964561857,-0.000028472743,0.000131447571
12.70221904,0.000934293028,-0.00310594216,-0.002711341251,0.004227428478
12.71221404,-0.0004004079383,0.0002151331864,0.0003515939461,0.0005746539027
12.72220904,-0.0005777744809,0.0001453582663,-0.00271610124,0.002780675875
12.73220404,-0.002203888027,0.0001056960318,-0.0003814762458,0.002239155692
12.74219904,0.000471257139,0.00001887697726,0.0008766009705,0.0009954239764
12.75219404,-0.001559121069,-0.0006348742172,-0.0005494056968,0.001770810661
12.76218804,0.001527482644,0.002631492913,-0.002386454027,0.003866926557
12.77218304,0.0014433373,-0.0009715969209,0.0003831759095,0.001781585506
12.78217804,0.00258902926,-0.000627516536,-0.0001654352527,0.00266912314
12.79217304,0.0002815958578,0.001543217106,0.00005089817569,0.001569524096
12.80216804,0.0005785382818,-0.001086388249,-0.0004521729425,0.001311261355
12.81216304,-0.001147367293,-0.0000712336041,0.00221225014,0.002493105816
12.82215804,0.001234297641,0.001796973869,-0.000187790487,0.002188120431
12.83215204,-0.0006798021495,0.0004368282389,-0.001587360166,0.001781196836
12.84214704,-0.0003695439082,0.00003495719284,-0.0002009185264,0.0004220816978
12.85214204,-0.0009900191799,0.0004381958861,0.002318519168,0.002558844415
12.86213704,0.001777537866,0.001137275598,-0.00128180848,0.002469021998
12.87213204,-0.001962734852,-0.0007046954706,-0.001104878844,0.002360017175
12.88212704,0.000714274589,-0.0005552920047,0.0004077965859,0.0009923887618
12.89212204,-0.002279125154,0.001064385753,-0.000483268057,0.0025614208
12.90211604,0.002285533119,-0.002708514454,-0.002585301176,0.004386740744
12.91211104,-0.0003057142021,-0.0004504711833,0.00151014165,0.001605276694
12.92210604,-0.0007808222435,0.0001306305639,0.0001822896302,0.0008123898261
12.93210104,-0.001648319187,0.001185635803,-0.0004620740074,0.002082354626
12.94209604,0.0001381293405,0.001543830964,0.0001533825416,0.001557568606
12.95209104,-0.0004747621715,-0.002038938925,0.001423768234,0.002531755723
12.96208604,-0.001070244936,0.0003424596507,-0.001088657882,0.001564569851
12.97208004,0.00108954031,-0.0003157714382,-0.003234110773,0.003427284957
12.98207504,-0.000923809479,0.000501020113,0.001155577716,0.001561987505
12.99207004,0.0009490123484,0.001843575155,-0.0006039905129,0.002159675515
13.00206504,-0.001426260918,-0.001306677936,-0.001354735577,0.002361553709
13.01206004,-0.00002435676288,0.0004582884721,-0.003723968752,0.003752141367
13.02205504,0.0005836428609,-0.001239476725,-0.00001178868115,0.00137006588
13.03205004,0.0003791369963,0.001631181571,-0.0002621603198,0.001695059354
13.04204404,-0.001673361287,0.0008567343466,-0.001491475501,0.002399714755
13.05203904,-0.0005125943571,-0.0003335787915,0.003094499465,0.003154354882
13.06203404,-0.001463342807,0.00184488704,0.001001521014,0.002558910843
13.07202904,0.001190519193,-0.0001222793944,0.001707862364,0.002085445289
13.08202404,0.0000642684754,0.001805849257,0.0003160944907,0.001834431166
13.09201904,0.001949735684,0.001195490127,0.001883443445,0.00296277321
13.10201404,0.0005768763367,-0.001037836773,0.0003819533158,0.001247309028
13.11200804,-0.00354132941,0.001275108545,-0.001395061729,0.004014114226
13.12200304,0.0002981501166,0.0005035906797,0.0002260043984,0.0006273556032
13.13199804,0.001523133367,0.001784641761,0.0007027266547,0.002449225637
13.14199304,-0.001389832119,0.002652565949,0.0008183079772,0.003104410955
13.15198804,-0.0001601987751,0.001460270723,0.001104215276,0.00183775559
13.16198304,-0.002185000107,-0.0004657274112,0.0005790399155,0.002307902665
13.17197804,-0.0004399704048,-0.0008247934747,-0.0006592824357,0.001143901903
13.18197204,0.0005328822881,0.002455421956,0.001491752802,0.002922051837
13.19196704,-0.00205518282,-0.001686590258,0.0009782877751,0.002832915476
13.20196204,-0.0005068209721,0.002731593791,0.0002065035515,0.002785877933
13.21195704,-0.00206974335,0.0002323065419,-0.0009373882785,0.002283965991
13.22195204,-0.001490239636,-0.00280449586,-0.001295317081,0.003429848035
13.23194704,-0.001258110511,-0.0001829087269,0.0002056683879,0.001287865345
13.24194204,-0.001308976905,-0.0005166027695,-0.0007008716348,0.001572106869
13.25193604,-0.0001810931135,-0.0007763502654,0.000002082670107,0.0007971943225
13.26193104,-0.003390468657,-0.00003679050133,0.001225272543,0.003605263383
13.27192604,0.0002004981507,-0.000290354481,-0.0004107397399,0.0005414908743
13.28192104,0.0001075540204,0.001087565208,-0.0007231285563,0.001310450631
13.29191979,0.002161633689,-0.0003562481143,0.0001867564861,0.002198738481
13.30191479,0.0004084745888,-0.001498477999,-0.0001714386744,0.001562587285
13.31190979,0.002795969136,-0.001151724719,-0.001665715361,0.003452321089
13.32190379,-0.0008765300736,-0.00006089406088,0.0001931710867,0.0008996266588
13.33189879,-0.001314437483,-0.0008779603522,-0.0005138569395,0.001662109873
13.34189379,0.0009609672707,0.0001391009428,0.000306662987,0.001018258
13.35188879,0.001421125373,0.0001557341311,0.0003598987823,0.001474237965
13.36188379,-0.0008830415318,0.001300094416,0.003035044065,0.003417820989
13.37187879,0.000265854178,0.001524170628,-0.00002585665789,0.001547398822
13.38187379,-0.0003802287392,-0.001030333573,-0.0007094900357,0.001307492744
13.39186779,-0.002035863232,0.003368759528,0.0004567085998,0.003962557583
13.40186279,-0.0006140016485,-0.0009897700511,0.0006029162323,0.001311545181
13.41185779,-0.0005476350198,-0.001031887019,-0.00103820092,0.001562867904
13.42185279,0.0008854118641,-0.0013152475,0.0009786108276,0.001863198677
13.43184779,0.000142457895,0.0001605954021,0.002109683119,0.002120577279
13.44184279,0.00002714316361,-0.0003406114411,-0.001437114784,0.001477176973
13.45183779,0.0001777205616,0.0005616456037,-0.0008813752793,0.001060119222
13.46183179,-0.001327231876,0.0002556482796,0.0008720500628,0.001608530947
13.47182679,-0.001984617207,0.00009166193195,0.0005446411669,0.002060034313
13.48182179,-0.0005824627588,0.001753740828,-0.0002063702559,0.001859424222
13.49181679,0.00001463503577,-0.0004155123606,0.0008392698364,0.0009366101454
13.50181179,-0.001641052193,-0.0019550859,-0.001695260406,0.003064199898
13.51180679,-0.001305063255,-0.0001882943325,-0.001467016758,0.001972506787
13.52180179,-0.002271524398,0.000002654269338,0.001381234149,0.002658502945
13.53179579,0.001216645469,-0.001558151795,0.002088129288,0.002875473376
13.54179079,-0.002391405171,-0.001262274571,-0.001628311817,0.003156509964
13.55178579,-0.000002668122761,0.003267467488,0.00033705018,0.003284806497
13.56178079,-0.0004900265485,-0.000600774074,0.0009735458298,0.001244526813
13.57177579,-0.0001423509093,0.001148978481,0.000263465452,0.001187362361
13.58177079,-0.0007668621838,-0.001123496797,-0.001081963535,0.001738093137
13.59176579,-0.001065509277,-0.0006925391499,-0.001317679184,0.001830628014
13.60175979,-0.003392313141,-0.001304267207,-0.0006111425464,0.003685430315
13.61175479,-0.0001866071252,0.0002033843193,-0.002319746185,0.002336109964
13.62174979,0.001844585757,0.0007349512307,-0.001066729077,0.002254009949
13.63174479,0.00008259760216,-0.0002853979822,0.001474107965,0.00150375153
13.64173979,0.001097794622,-0.001715781866,0.002044557128,0.002886048214
13.65173479,-0.0009939740412,-0.002237565583,-0.002049013739,0.003192669954
13.66172979,0.0009179093176,-0.001064709388,0.001708706608,0.002212654937
13.67172379,-0.002074085642,-0.0004208141472,0.0006335981889,0.002209154241
13.68171879,-0.0005590132205,0.0004335278645,-0.001107310178,0.001313993158
13.69171379,-0.0002652500989,-0.0003379115369,0.0009966915241,0.001085327515
13.70170879,0.00247647427,-0.0001805187203,-0.0002003993141,0.002491118565
13.71170379,0.0003843407612,-0.001876006601,-0.0003525084467,0.001947146834
13.72169879,0.002168392297,-0.000331639545,-0.002588764764,0.003393171517
13.73169379,-0.003290960565,0.0003412154038,0.002196436748,0.003971294975
13.74168779,-0.0007838607999,-0.001931792358,-0.0002536715474,0.002100144929
13.75168279,0.0016311988,-0.001277080039,-0.0004165035207,0.002113106276
13.76167779,0.0002306423848,0.0007266822504,0.001435458777,0.001625363006
13.77167279,-0.001832372393,0.0004229063634,-0.001181946252,0.002221133792
13.78166779,0.00009548990056,0.0008468815358,0.0004465767415,0.0009621628983
13.79166279,-0.00208951789,-0.000251080608,0.001812028699,0.002777152226
13.80165779,0.001730520278,0.001735104946,0.0004626050359,0.002493851044
13.81165179,-0.0000846585026,0.001318061491,0.0002566317562,0.001345478731
13.82164679,0.001820566948,-0.0008537464309,-0.001333808061,0.0024129631
13.83164179,-0.0008325711824,0.002912851982,0.0009310096502,0.003169331224
13.84163679,-0.0002690462861,-0.0006829481572,0.001269231085,0.001466203136
13.85163179,-0.00226098951,0.0009801642736,-0.0009356567753,0.00263595318
13.86162679,0.001979828347,0.0005460691173,-0.001321548829,0.00244221274
13.87162179,-0.0003774443176,0.002433934947,0.001783147454,0.003040743065
13.88161579,0.001382638933,-0.0009802374989,0.0003080224851,0.00172262411
13.89161079,0.001421365188,0.001714114565,-0.0003719719243,0.002257616189
13.90160579,-0.0008058365202,0.001662449213,0.001986523625,0.002712818828
13.91160079,-0.0002355478937,0.001148542622,0.00124175055,0.001707798991
13.92159579,0.002926156856,-0.0008869112935,-0.00106534583,0.003237895509
13.93159079,-0.0012855276,-0.001362510491,-0.001158807543,0.002202691756
13.94158579,-0.0008024300914,-0.00003652251326,-0.00103470427,0.001309901092
13.95158079,-0.002403271385,-0.0008909755852,0.0009363163263,0.002728779783
13.96157479,0.001464171102,-0.000187368365,0.00002231937833,0.001476279809
13.97156979,-0.00166634412,0.0003528888337,0.0002993154339,0.001729399602
13.98156479,0.00127884571,0.0008202735335,-0.001214425312,0.001945025413
13.99155979,0.0006835893728,-0.0006632374134,0.0008420924423,0.001271337083
14.00155479,-0.001193672884,-0.0002720190678,-0.001190698356,0.001707809095
14.01154979,0.000503787538,-0.0003684612457,-0.00004094245378,0.0006254932914
14.02154479,-0.002198521979,0.0006565894,-0.0004388187663,0.002336058741
14.03153879,0.002425929997,-0.002179304836,-0.000186347519,0.003266378931
14.04153379,0.00002935121302,-0.001050923485,0.000220583519,0.001074224723
14.05152879,0.001381802489,0.0006731771864,0.0007735549007,0.00172073613
14.06152379,0.001766629168,0.000614321325,0.000722954981,0.002005251409
14.07151879,-0.00117219775,0.0005545527674,-0.001203838619,0.001769407742
14.08151379,-0.001080052461,0.001455233782,0.002168788575,0.002826280694
14.09150879,-0.0003807985922,-0.0006155322772,-0.0009547576774,0.001198102573
14.10150279,0.0004461129429,-0.001986527815,0.000960854115,0.002251344076
14.11149779,0.001760294545,0.0008802367374,-0.0008605857147,0.002148036631
14.12149279,-0.0004051218275,-0.000832175836,-0.0004850799451,0.001044960703
14.13148779,-0.001067887759,0.00002556294203,0.0001559561351,0.001079518432
14.14148279,0.000359566533,0.0002474042121,0.002563720103,0.00260060718
14.15147779,0.00056437694,0.0006812517531,0.001251816982,0.001532863673
14.16147279,-0.0007930363063,-0.0008516637608,-0.001363939838,0.001792922092
14.17146679,-0.0002546829637,0.0002061282285,0.0004491931759,0.0005559916976
14.18146179,0.0002835418563,0.002588592004,0.0008412103634,0.002736574396
14.19145679,-0.001328521408,0.00117806904,0.00006981217302,0.001776988896
14.20145179,-0.0004307697527,-0.001003858866,0.001308181905,0.001704299005
14.21144679,-0.0009528847877,-0.0005171552766,0.0001184518915,0.00109062819
14.22144179,-0.001782193081,0.001386738499,0.001273997361,0.002592744708
14.23143679,0.00003552122507,0.001593259978,0.0004452213179,0.00165467856
14.24143079,-0.001110170619,0.001345053432,-0.001095683663,0.002059652938
14.25142579,-0.0005776840262,-0.001089493046,0.001783947228,0.002168682006
14.26142079,-0.001187547925,0.0008471575566,-0.0006773461937,0.001608335744
14.27141579,-0.001809813781,-0.0001376827713,-0.0004289554199,0.001865042954
14.28141079,0.0009939622832,0.000672717113,0.0007361775497,0.001408000966
14.29140187,-0.0005871100584,-0.001095099607,-0.0003933114931,0.001303317038
14.30139688,0.0003708290169,0.0001736304257,-0.001850593137,0.001895351324
14.31139088,0.0003774923971,0.001485871151,0.001019279473,0.001840990014
14.32138587,-0.001333854976,0.002414249117,0.001111957477,0.002973922885
14.33138088,0.001083560521,0.002459431067,-0.0005217722501,0.002737727316
14.34137588,-0.0008331164718,-0.00009933393449,0.0009349767352,0.001256237152
14.35137088,-0.0004428238608,0.00006158836186,-0.0002387191635,0.0005068263381
14.36136587,-0.001395436469,0.0009372356581,0.002457465045,0.002977379396
14.37136088,0.002737517003,-0.001394380815,-0.0002112543443,0.003079435922
14.38135488,0.000540675479,0.0001531818416,0.0003797010286,0.0006782090543
14.39134988,0.001157895313,-0.001005298225,0.0008215087,0.001739604156
14.40134487,-0.0008927386953,0.0003566422965,-0.001158019062,0.001505052907
14.41133988,-0.001142603578,-0.0005561588332,-0.001519011566,0.001980467552
14.42133488,-0.001849406515,-0.0005146136973,-0.001158952247,0.002242387573
14.43132988,-0.0001873712754,0.001824700157,-0.000507408753,0.001903182151
14.44132487,-0.0008957721293,0.0008606357733,0.0001424025977,0.001250352007
14.45131888,-0.0007348032668,-0.001214175485,0.001282428508,0.001912793984
14.46131388,0.0002923780121,-0.001857595053,0.0006094478304,0.001976757683
14.47130888,-0.001001063152,0.0007011620328,-0.0009639398777,0.001556578208
14.48130387,-0.0001243505394,0.000218863599,-0.0000779061811,0.0002635027603
14.49129888,0.0001933923922,0.0008068957832,-0.0004059282364,0.0009237202799
14.50129388,-0.001595452894,-0.001797675621,-0.00008448469453,0.002405045787
14.51128888,-0.00001284922473,0.003686814569,0.001616041176,0.004025463433
14.52128387,0.0006177873584,-0.001168394228,0.0001486394322,0.00132999999
14.53127788,0.00030590815,0.002923968015,0.0005643931217,0.002993611255
14.54127288,-0.001219284255,0.0006727980217,0.001183844404,0.00182778523
14.55126788,-0.001623613061,0.00368329417,0.0007775205886,0.004099672375
14.56126287,-0.001130661927,-0.001213726355,-0.0007319591823,0.00181308916
14.57125788,-0.0005919418763,-0.0008041930851,-0.0005800835206,0.001154824053
14.58125288,-0.00129448378,0.002909851493,0.000356550212,0.003204692189
14.59124788,-0.0003478513099,-0.000498306239,0.002212274121,0.002294224581
14.60124187,-0.00311141368,-0.002497008769,0.001244215062,0.004178997368
14.61123688,0.00008391519077,0.0001164504793,0.00219812803,0.002202809413
14.62123188,0.0004849872785,0.001839515753,0.003356070723,0.003857750843
14.63122688,-0.00004484271631,-0.001345681492,0.0007389739621,0.001535888038
14.64122187,0.002810864942,-0.0002029191237,-0.00113482622,0.003038086313
14.65121688,0.0003760298714,0.0009933471447,0.00006948108785,0.001064408115
14.66121188,-0.001593377674,-0.002264231676,-0.0001896445174,0.002775168921
14.67120587,0.0007244626759,0.0001229871996,0.001496287179,0.001666987505
14.68120087,0.0004086118424,-0.001241616439,-0.001211348572,0.001782116826
14.69119588,-0.003274713643,-0.001328666462,0.001183462096,0.003726886977
14.70119088,0.0000624936074,0.0009046603227,0.000409547356,0.0009950099433
14.71118587,-0.0008153772797,-0.001579786884,-0.001385028008,0.002253634684
14.72118087,-0.0005807527341,0.0002103899606,-0.001378103858,0.001510201284
14.73117588,-0.001907754573,0.001485531917,0.001265778905,0.002729199301
14.74116988,-0.001767139649,0.0002756579779,-0.001172345132,0.002138495492
14.75116487,-0.001901263371,-0.0006434235256,-0.00004614982754,0.002007716625
14.76115988,-0.00116489944,-0.002299643354,0.0003479981096,0.002601240656
14.77115488,0.0008570366772,0.001495205332,-0.0010532171,0.002019756696
14.78114988,0.001714308164,0.0005098356633,-0.001457218663,0.002307004793
14.79114487,-0.001436145045,0.003395803738,0.00005801918451,0.003687460081
14.80113988,0.0003439119319,-0.001287098508,0.002251665108,0.002616274784
14.81113488,0.0005593416281,0.0007719551213,-0.0003875525435,0.001029064983
14.82112888,-0.0003847490298,0.002057729289,-0.0001417427557,0.002098183179
14.83112387,-0.002991703339,0.001449829317,0.001303656842,0.003570968367
14.84111888,0.001913573127,-0.002278063679,0.0001161533874,0.002977386077
14.85111388,0.00071452267,-0.0000311837066,-0.00009377847891,0.0007213248038
14.86110888,-0.0003904227633,0.0003871989902,0.001335007488,0.001443813695
14.87110387,0.00072805339,0.001130080898,-0.0003481649328,0.001388655247
14.88109888,0.001054556924,-0.0001429100521,-0.001268819673,0.001656024442
14.89109288,0.0007885843515,-0.001555521274,0.0008128716145,0.001924128887
14.90108788,-0.0003134316066,-0.000930211274,0.0008895706851,0.001324714456
14.91108287,-0.0002590799704,-0.0005610359367,0.0003915168345,0.0007315525853
14.92107788,0.0004370703828,-0.0009165680967,-0.0009895984549,0.00141789728
14.93107288,0.0009075327544,-0.001107985619,-0.001499706879,0.002073733
14.94106788,0.001924860175,-0.0002802750096,0.00202738354,0.002809612925
14.95106287,0.002242316725,-0.0006170235574,-0.001568587148,0.002805203737
14.96105688,0.0007845023647,-0.0007712205406,0.0010809917,0.001542325562
14.97105188,-0.000009074108675,0.000594832818,-0.001441629254,0.001559552284
14.98104688,0.001909467275,-0.0007013275754,0.0004790425301,0.002089834297
14.99104187,0.00004418834578,0.001063376432,0.00116412621,0.001577311599
15.00103688,0.000627154368,0.001781631028,-0.001395171508,0.002348198301
15.01103188,0.002632023534,-0.0002512913197,-0.001199499471,0.002903359122
15.02102688,0.0002077477984,-0.0009479743894,-0.001783264335,0.002030233061
15.03102087,-0.0009832188953,0.002611506497,0.001761221094,0.003299785648
15.04101588,-0.001699342858,-0.001221315004,-0.0003346865997,0.002119290355
15.05101088,-0.0002468648599,-0.001060897717,0.0007655638037,0.001331365526
15.06100588,-0.0004604504211,0.00177829829,0.001271564397,0.002234107297
15.07100087,-0.00001276761759,0.001209490816,0.002950947965,0.003189220114
15.08099588,0.000680453144,-0.0002951952629,-0.002488825005,0.002596999543
15.09099088,0.002477334812,-0.001614964334,-0.001694889273,0.003408510998
15.10098588,-0.0004731817171,0.001460453845,-0.001313258312,0.002020265765
15.11097988,0.002321491484,-0.0008750620764,0.001935747801,0.003146772298
15.12097488,0.0002610037336,-0.0008486967999,-0.0008206238854,0.001209062764
15.13096988,-0.0004733090755,0.0004546351265,-0.0009300987003,0.00113833131
15.14096487,0.0007890294073,-0.001426089322,0.001248367014,0.002052977926
15.15095987,0.00004708929919,0.0004636296071,-0.001778389909,0.001838434248
15.16095488,0.0006505615311,0.001700667897,-0.0009541415493,0.002055696402
15.17094988,-0.000355321914,0.00004353467375,0.001286186161,0.001335074444
15.18094387,0.0007610751782,-0.00132399844,-0.002022791654,0.002534540071
15.19093888,0.0006744880229,-0.001265658531,-0.000962666003,0.001727295992
15.20093388,-0.0006488367217,-0.000927436864,-0.0005770402495,0.0012704738
15.21092888,0.001371078659,-0.0005994334351,-0.0003069174709,0.001527539023
15.22092387,-0.001884369412,-0.0007991704624,-0.001936505781,0.002817725351
15.23091888,0.0000793376239,0.001504223794,0.001960800961,0.002472594606
15.24091388,0.0007248877082,0.001722602872,0.0009602512,0.002101167583
15.25090888,0.000003111548722,-0.0002156717237,0.0001701948931,0.0002747549377
15.26090287,-0.0004839806352,0.0003571743146,-0.00007215281948,0.0006058190948
15.27089788,-0.001089403871,-0.0001765496563,0.001900722738,0.002197889329
15.28089288,0.0006445803447,-0.002287371084,0.00126449368,0.002691931382
15.29088788,0.001936121029,-0.00001365481876,-0.0005480028922,0.00201222719
15.30088287,-0.0008695191354,-0.001119931927,-0.001143752015,0.001821669487
15.31087788,0.002516046166,0.000589475967,0.0006660628133,0.002668634463
15.32087288,-0.00008985667955,-0.0002920303959,-0.0004143816768,0.000514847695
15.33086688,0.0001330695814,-0.001918561524,-0.0002929491457,0.001945354733
15.34086187,-0.001265089959,0.0004705605097,0.0008370301221,0.001588237773
15.35085688,-0.001125882496,0.0006693591131,0.0008957535028,0.00158682934
15.36085188,-0.001153579447,0.00161691173,0.0001905483659,0.001995359056
15.37084688,0.003468369134,-0.000007399125025,-0.00004531128798,0.003468672989
15.38084187,-0.003208974376,0.0006434774259,0.002097201766,0.003887137121
15.39083688,0.00159469049,0.001487463829,0.00003106845543,0.002180952005
15.40083088,-0.0008692661067,0.001614762936,0.00189900957,0.002639947017
15.41082588,0.002829229459,0.0006498035509,0.003123661503,0.004264275457
15.42082087,-0.001906403457,-0.002808843507,-0.0001280581346,0.003397112726
15.43081588,0.002220470225,-0.001843603328,-0.00006840832066,0.002886873906
15.44081088,-0.0002195179695,-0.0007961823139,0.0009494518163,0.001258393089
15.45080588,0.001672405051,-0.00009411736391,0.001629613689,0.002336971867
15.46080087,0.0009176651947,-0.0007188951131,-0.001317973016,0.001759537571
15.47079588,0.00167256291,0.0004445258528,-0.0001385335345,0.001736162856
15.48078988,0.0009172905702,-0.00008331262507,0.0008276612498,0.001238299692
15.49078488,-0.0005570729263,0.001883962192,-0.0006888375501,0.002081859975
15.50077987,-0.003568575485,0.002102607628,-0.0005287816166,0.004175559822
15.51077488,0.0007764764596,-0.0002065273002,0.00289957691,0.003008839556
15.52076988,0.0009202873334,-0.0008345008828,-0.001010742155,0.001601536825
15.53076488,0.001687103533,0.003662663978,-0.0004018070176,0.004052514605
15.54075987,0.001103072311,0.0001046806574,0.002375070937,0.002620818292
15.55075388,0.0008972326759,-0.002440269804,0.001198246027,0.002862819717
15.56074888,0.00009002850857,-0.0004421002232,-0.001611388871,0.001673359445
15.57074387,-0.00006851321086,0.003059257288,-0.000304974732,0.003075184352
15.58073888,0.002717685886,-0.001146140276,-0.001347868587,0.003242869691
15.59073388,0.0007908524713,0.001181448693,-0.00261061429,0.002972637822
15.60072888,0.0006486395141,0.0005707859527,-0.002356016077,0.002509450454
15.61072387,0.000330943265,-0.002850211458,0.0006295908242,0.002937620365
15.62071888,-0.00004349718802,0.0009650328429,0.00004715751857,0.0009671629774
15.63071288,-0.00005749170668,-0.002505868208,0.001161631313,0.002762619785
15.64070788,0.001776627265,-0.001549260691,0.001709443633,0.002911839738
15.65070287,-0.00009029160719,0.0005439808592,0.0004080091603,0.0006859586171
15.66069788,-0.00285625062,0.001207108027,-0.001811469207,0.003591197304
15.67069288,0.001065282035,-0.0004076962359,0.00008297304157,0.001143646169
15.68068788,-0.002283110283,-0.001353384694,0.002787146717,0.003848691923
15.69068287,-0.0003915353445,-0.0008130345959,0.0007992387982,0.001205449226
15.70067688,0.0006228626007,-0.00008386117406,-0.0002891952172,0.0006918268494
15.71067188,0.002179128816,0.0003584630322,0.0005487042945,0.002275560271
15.72066688,-0.0001908182167,0.00025246921,0.0003127482487,0.0004449311866
15.73066187,0.001445183181,0.0001999104861,0.0003746944712,0.001506291664
15.74065688,0.000542105292,-0.000763354823,0.0001278193668,0.0009449478948
15.75065188,-0.0002341236686,-0.00002041668631,0.001170911128,0.001194262786
15.76064688,0.0004721466685,-0.002030570526,0.0005224314518,0.002149203052
15.77064187,0.001231843373,0.0006985554937,0.0003406722099,0.001456528554
15.78063588,0.0004725761246,0.0004346361384,0.001943096169,0.002046426028
15.79063088,-0.002122671809,-0.0004379977472,0.0003463178873,0.002194883531
15.80062588,-0.000127964071,-0.002202342032,-0.00006540678442,0.002207025889
15.81062087,-0.002118196571,-0.0009260268416,0.001969740028,0.003037129928
15.82061588,-0.0009147140663,0.001174674602,0.000730304746,0.001658284435
15.83061088,-0.0004947293783,0.001322726021,-0.000007690163329,0.001412239506
15.84060588,-0.001897682669,0.000004727626219,-0.0005427192664,0.001973769506
15.85060087,0.001496914076,0.0006673614262,-0.0002983647864,0.001665876517
15.86059488,0.0002766535617,-0.001653849613,-0.0009982434567,0.001951472709
15.87058988,-0.001085218741,-0.00105546508,-0.000156357768,0.001521891587
15.88058488,0.002208845224,0.0008492276538,0.001269498607,0.002685481623
15.89057987,0.0003301752731,-0.001120916102,0.001132930745,0.001627575096
15.90057488,0.0006878378335,0.001609889092,-0.001046067686,0.002039392404
15.91056988,-0.001375812339,0.0007859419566,-0.001603712444,0.002254430738
15.92056488,0.0009115766734,-0.00001060962677,0.0005305447849,0.001054780719
15.93055887,-0.000879341329,-0.0008104725275,-0.001299157855,0.001765762731
15.94055388,0.002486894373,-0.001430722885,-0.0006922234315,0.002951403882
15.95054888,-0.00155898009,0.0003200336359,-0.0002651326358,0.001613423615
15.96054388,0.0002999063581,0.00001883017831,0.0006523262709,0.0007182116422
15.97053887,-0.0006214814493,-0.0004282547161,-0.001795127755,0.001947337914
15.98053388,0.001276553492,0.001935300766,0.0008611090016,0.002473153167
15.99052888,-0.001744929235,0.000125723891,-0.0007340240409,0.001897202105
16.00052388,0.001260181656,0.000576863531,-0.0009894211544,0.001702875087
16.01051788,0.001513249474,-0.0005552235525,-0.00133332226,0.002091876051
16.02051288,0.0007848748937,0.0008053852944,0.002489911625,0.002732093332
16.03050788,-0.00179720344,0.002560683992,0.001859174576,0.003639171996
16.04050287,0.002549075289,-0.0007006230298,-0.0009856140241,0.002821363582
16.05049788,-0.0002170176012,0.0007092304295,0.002368755639,0.002482157875
16.06049288,-0.0007373992703,0.0009830032941,0.0008539494593,0.001496423349
16.07048788,-0.0005001019454,0.0004592861515,0.0002109120833,0.00071100607
16.08048187,0.0006471879315,-0.001005718717,0.000601864187,0.001338866258
16.09047688,-0.003363033757,-0.0006218422204,0.001452156575,0.00371556759
