Time (s),Gyroscope x (rad/s),Gyroscope y (rad/s),Gyroscope z (rad/s),Absolute (rad/s)
0.04623158334,-0.001388145611,-0.000179130584,0.0008079658728,0.001616120309
0.05622558342,-0.001286412822,0.003488574643,-0.0008413296891,0.003812197087
0.06622058339,-0.0003254782641,-0.00004220358096,0.0009964748751,0.001049132699
0.07621558337,0.0004588225856,-0.000507191522,0.00004386226647,0.0006853359056
0.08620958333,0.00003133923747,-0.004282739013,0.002863767557,0.005152086978
0.09620458342,0.0002148309723,0.002592477482,0.00003442529123,0.002601591232
0.1061995834,-0.0002511363709,0.0004277294502,-0.0008565973258,0.0009898388444
0.1161935834,0.00119895488,0.001452247496,-0.0009447479388,0.002106908698
0.1261885833,-0.00108390674,0.0003739334643,-0.00005977950059,0.001148152274
0.1361825834,-0.001139300526,-0.00103115011,-0.001088824938,0.001883299228
0.1461775834,0.001228284789,-0.00033361651,0.001435910235,0.001918807365
0.1561725833,0.001797934994,0.0008850460872,0.0001067265403,0.002006805266
0.1661665834,-0.001650616992,0.0003048521467,-0.001422999194,0.002200544931
0.1761615834,0.0007036174648,-0.002272821497,0.0003045934718,0.002398660517
0.1861565834,-0.000008310889825,-0.001040885225,-0.0003760700929,0.001106770002
0.1961505833,-0.0005771621363,-0.001952484949,-0.0005236092256,0.002102255985
0.2061455834,-0.001513328636,-0.001149050426,0.0002460856922,0.001915995462
0.2161405834,-0.0009697774658,-0.0001687407494,-0.0001296863193,0.0009928546294
0.2261345834,-0.0007402934134,0.002702909056,0.001209707349,0.003052399642
0.2361295833,0.00122725009,0.0008970195195,0.001190532581,0.001930842984
0.2461245834,-0.001167922397,-0.001781649189,0.0006022569723,0.002213827008
0.2561185834,0.00007470860146,-0.003322021803,0.00179348886,0.003775978353
0.2661135833,-0.0005230099196,-0.001984243514,-0.0006509427913,0.002152786152
0.2761085833,-0.00160851446,-0.0002124425955,0.0007376294816,0.00178228726
0.2861025834,-0.001088132733,-0.000267569907,0.0008164589526,0.001386445715
0.2960975834,0.0004090964794,-0.002159479773,0.000858536805,0.002359618245
0.3060915833,-0.00358430855,-0.00003550876863,-0.001691276906,0.003963451302
0.3160865834,0.0008450609166,-0.0008387181442,0.002340748906,0.002626153369
0.3260815834,-0.001288492465,0.00025820476,-0.000177398324,0.00132602892
0.3360755834,-0.000007778173313,-0.005475048907,0.0001094242325,0.005476147797
0.3460705833,-0.002479093382,0.003733729478,-0.00151134748,0.004729779172
0.3560655834,-0.0003040897427,0.00002660928294,0.001024248195,0.001068767042
0.3660595834,0.0007243095897,0.0002331768628,0.00132787053,0.001530436531
0.3760545834,0.0004369544331,0.001396978158,-0.001244210405,0.001921076959
0.3860495833,-0.00166909839,0.00130227895,0.0005020191893,0.002175739683
0.3960435834,-0.0001164753921,-0.0009859090205,0.0006450309884,0.001183912197
0.4060385834,-0.003541059326,0.001322895754,-0.0003166402457,0.003793338289
0.4160335833,-0.001806542627,0.001749267802,0.0004346375354,0.002551949038
0.4260275834,-0.001582028344,-0.001879926771,0.0003422800219,0.002480744638
0.4360225834,-0.0003298100783,0.000148603227,-0.0007597360527,0.000841460918
0.4460175834,0.001386813587,-0.00004239263944,-0.003368844278,0.003643372178
0.4560115833,0.00006668455899,0.001184792025,0.00218544458,0.002486834733
0.4660065834,0.00002037105151,-0.001430009492,0.001415794832,0.002012415745
0.4760015834,0.001495495904,-0.0006973738782,-0.0001514754258,0.001657040473
0.4859955834,-0.000004613306373,-0.002394025214,0.0003334983485,0.002417146904
0.4959905833,-0.0002091442002,0.002441476332,0.0007343039615,0.002558075504
0.5059845834,-0.0007160987007,0.00167584233,-0.0004097159253,0.001867916487
0.5159795834,-0.001451663673,-0.000118595548,-0.0004123791005,0.001513753231
0.5259745833,-0.0009781137342,0.001380649512,0.0008453867631,0.001891448738
0.5359685833,0.0005414860789,0.0008687899681,0.0003455114784,0.00108045424
0.5459635834,-0.0007103108801,-0.001887074439,-0.0001730805961,0.002023746125
0.5559585834,0.001068414422,0.0008653023979,-0.0007517855265,0.001566984076
0.5659525833,-0.001972528175,-0.001160376705,0.001100040041,0.00253917892
0.5759475834,-0.0003011283698,0.000697977026,-0.001555930357,0.001731695557
0.5859425834,-0.00194031978,-0.0008359968197,0.002637269674,0.003379189676
0.5959365834,0.0001920731738,-0.001280212076,0.0003147269599,0.001332249272
0.6059315833,-0.001293809386,-0.0003328537568,0.00003304798156,0.001336348203
0.6159265834,-0.001108453376,-0.002017569495,-0.000508905272,0.00235759202
0.6259205834,-0.001535070711,0.0007329110522,0.001488938229,0.002260649851
0.6359155833,-0.0008434477495,-0.001335299807,-0.004087987356,0.004382473081
0.6459105833,-0.0004986219574,0.001272793743,0.001199360704,0.001818541687
0.6559045834,-0.0013087556,-0.0001424101647,0.00009574671276,0.001319958071
0.6658995834,-0.001442816923,-0.0008904028218,0.0002583834575,0.001715021828
0.6758935833,0.0002371051814,-0.0007223573048,-0.00177946745,0.001935077091
0.6858885834,0.0004219932016,-0.002166760387,-0.00007615901995,0.002208784515
0.6958835834,-0.001591622829,-0.002223752206,0.0006524818018,0.002811417722
0.7058775834,-0.00001943879761,-0.002285444178,0.0001526480773,0.002290618779
0.7158725833,0.0002482088748,0.0001231187489,0.0007345486665,0.0007850653574
0.7258675834,-0.001591606881,-0.001294999616,0.002368830144,0.003133942042
0.7358615834,-0.00107175787,-0.0008204241749,-0.0007768956129,0.001557346317
0.7458565834,0.002613662509,-0.0004397940356,-0.002186645521,0.003435996091
0.7558515833,-0.001410107594,0.0002228005324,0.002598255873,0.002964620901
0.7658455834,-0.0001772488467,-0.0002485197037,-0.0003763313289,0.0004845662658
0.7758405834,-0.001125334064,-0.0008469321765,0.0003190200077,0.001444106863
0.7858355833,-0.0002307757968,-0.0004749933723,-0.0001690749777,0.0005544930299
0.7958295834,-0.0004334422993,0.00147230993,-0.000109420158,0.00153868175
0.8058245834,-0.0007338027935,0.001975970576,-0.0004457476898,0.002154441287
0.8158195834,-0.002607336733,-0.0008757424075,-0.001265468658,0.003027629523
0.8258135833,0.0002784107346,-0.001367089339,0.001026920043,0.00173234251
0.8358085834,0.000105305342,-0.001902917633,-0.0006711113965,0.002020538354
0.8458035834,-0.00153953745,-0.0006581563503,-0.001001760946,0.001951120277
0.8557975834,-0.001264699153,-0.003457671031,-0.0001817736775,0.00368618971
0.8657925833,-0.0008782320656,-0.0001430439297,0.002582844347,0.002731819549
0.8757865834,-0.003162425477,-0.0001883176155,-0.00186623272,0.003676849601
0.8857815834,-0.002513624728,-0.0004657995887,-0.000330824696,0.002577736121
0.8957765833,-0.00296289986,-0.002103643492,0.001061475952,0.003785607312
0.9057705833,0.0000140753109,-0.0009505904745,0.0002349152928,0.0009792882923
0.9157655834,-0.001238142955,0.0007980411174,0.001097513246,0.001836954798
0.9257605834,0.0003546655644,0.00008787983097,0.0011894895,0.00124434553
0.9357545833,0.0001125843264,0.001158736995,0.0008821607335,0.001460669098
0.9457495834,-0.0005749501288,-0.001634895103,-0.0009220701177,0.001963074871
0.9557445834,0.0004764657933,0.001040782896,-0.001960170455,0.002269915616
0.9657385834,0.001679954585,0.0007831049152,0.0001372153638,0.001858582463
0.9757335833,0.0004373234697,-0.0003090575337,-0.0007059414056,0.0008860709026
0.9857285834,-0.0001140220556,-0.00233094627,0.0009380469564,0.002515202504
0.9957225834,-0.001267969725,-0.0002041459084,0.003283492988,0.00352572673
1.005717583,0.001679509645,-0.003404573072,-0.0009807292372,0.003920931048
1.015712583,-0.0004800475435,-0.002223993652,-0.001539194025,0.002746945877
1.025706583,0.002394981217,-0.0004982950632,0.0003981611226,0.002478460263
1.035701583,-0.001265267143,0.001534229377,0.001067413483,0.002257018447
1.045696583,-0.001082061557,-0.001017201925,-0.0000407025218,0.001485669433
1.055690583,-0.000647167326,0.0006099895108,-0.0004399103927,0.0009921864264
1.065685583,0.001282734098,0.001362866722,0.001291944413,0.00227418839
1.075679583,-0.0008920031833,0.0002723021898,-0.002233015373,0.002419953681
1.085674583,0.001327370526,-0.0009262145031,-0.002516535344,0.00299211229
1.095669583,-0.001497178222,0.001397127286,0.003529905807,0.004080899691
1.105663583,-0.0009073847905,0.0006776140071,-0.001022145618,0.001525545661
1.115658583,-0.001321506454,-0.001451583346,0.002250346821,0.002986224093
1.125653583,-0.0001344976481,-0.001737728249,0.00006013456732,0.001743962514
1.135647583,0.001334235538,0.0004758911673,-0.000360112288,0.001461621611
1.145642583,-0.0003310716711,0.0002329221461,0.001410131808,0.001467083125
1.155637583,-0.001249862369,0.00252696895,0.002335846657,0.003661134745
1.165631583,-0.001268327003,0.002259016037,0.0008922547568,0.002740059378
1.175626583,0.00009787455201,0.001746091293,-0.00004544411786,0.00174942259
1.185621583,0.00005896785296,0.001102429233,-0.001293121488,0.001700291329
1.195615583,-0.0002283873037,0.0008939037798,0.001354060718,0.00163850699
1.205610583,-0.0002833871404,0.001330748666,0.001230820431,0.001834698672
1.215605583,0.0002572344383,0.000780006987,0.0005413281033,0.0009836750335
1.225599583,-0.001169447554,-0.0009017956909,0.001200088649,0.001902907201
1.235594583,0.0001759815495,-0.001059987582,0.0005478805397,0.001206116191
1.245589583,0.001082666335,-0.00115330657,0.0005382857053,0.001670938041
1.255583333,-0.0022758462,-0.001792198978,0.00005838414654,0.002897388792
1.265578333,0.001699450309,-0.002125411993,0.002257885411,0.003536036485
1.275572333,-0.0004859397886,-0.00332197058,0.00131059892,0.003604066529
1.285567333,0.0007557065692,0.001561087789,0.00009453727398,0.001736958491
1.295562333,-0.002128230408,0.0003349683248,-0.0005456866929,0.002222463141
1.305556333,-0.0004240617855,0.0004557492211,0.00330166053,0.003359836009
1.315551333,0.0005549162161,0.002572962316,-0.0001274255337,0.002635204803
1.325546333,0.002081006765,-0.0001137841027,0.001066424418,0.002341110211
1.335540333,-0.0004103806568,0.0005626588827,0.00189386867,0.002017854266
1.345535333,0.0008504765574,0.002335389145,-0.0003217743943,0.002506170703
1.355530333,-0.002204968128,0.0005707785022,0.00005612813402,0.002278337752
1.365524333,0.001464782632,-0.0002584299073,-0.000009132781997,0.00148743322
1.375519333,-0.001374413376,-0.0009814782534,-0.001548972563,0.002291643011
1.385514333,0.000304724439,-0.0004887809046,-0.0001088747522,0.0005861889355
1.395508333,-0.002382138744,0.001548270928,-0.001905443147,0.003420883138
1.405503333,-0.001795081189,0.001243280713,0.000410881592,0.002221910684
1.415498333,-0.001756199053,0.0004270218778,-0.00007780850865,0.001809043107
1.425492333,0.0006587463431,0.0006080706371,0.0003718171502,0.0009705383235
1.435487333,-0.002206814941,-0.0001474681776,-0.001419425011,0.002628030899
1.445482333,-0.0004153519403,-0.0003487225622,0.0003942421172,0.0006704860227
1.455476333,-0.0008513114881,-0.0007077166811,0.001089327154,0.001553134829
1.465471333,-0.0009686498088,-0.002092042007,0.001302330755,0.002647826959
1.475465333,0.0007746554911,-0.00177193014,0.0002352021402,0.001948113856
1.485460333,-0.001236555865,0.002418699907,0.001172983088,0.00295889658
1.495455333,0.0009317899821,0.0009750002064,0.001979388297,0.002395169305
1.505449333,-0.0007853470743,0.000309699215,0.0008575172396,0.001203336797
1.515444333,0.0004990955349,0.001052987529,-0.00107780192,0.001587304655
1.525439333,-0.0006353809731,-0.002100515878,0.001916925306,0.002913842577
1.535433333,-0.0009930434171,-0.001397441374,0.001217845478,0.002102884978
1.545428333,0.00004655460361,-0.001713953214,-0.0007652186323,0.001877594873
1.555423333,0.002867641393,-0.0005083403084,-0.0005713404971,0.002967862361
1.565417333,0.0008682411863,0.0007405998185,-0.00002504105214,0.001141471814
1.575412333,0.0006029902725,-0.0003161425702,-0.0003121297923,0.0007489782377
1.585407333,-0.000983619364,-0.0008879539091,-0.0006051267264,0.001456759264
1.595401333,0.0003389064223,-0.001298080664,0.003406392876,0.003661063152
1.605396333,0.0003608992556,0.002599277534,0.0002656569704,0.002637624991
1.615391333,-0.0003967699595,-0.001051383791,-0.0006845588796,0.001315847688
1.625385333,-0.002163517987,0.000596843427,-0.0009908339707,0.002453321038
1.635380333,0.0007238812977,0.001499655074,-0.0001183823915,0.001669426209
1.645375333,0.002125778468,0.002966436092,-0.001399360714,0.003908565925
1.655369333,-0.0002425705316,-0.00118756271,0.002107489854,0.002431184719
1.665364333,-0.0002005937276,0.001556415576,-0.003273411887,0.003630136729
1.675359333,0.0009717296343,-0.0001725086477,0.0009319856763,0.001357429562
1.685353333,0.0005078722024,0.002529525198,-0.0009829734918,0.002760918106
1.695348333,0.000304140267,-0.0007256567478,0.001992309932,0.002142049925
1.705342333,0.001398148597,-0.0004427146632,0.002253335668,0.002688556751
1.715337333,0.001862337464,0.0007921931101,-0.0003413822851,0.002052416287
1.725332333,-0.0003353237407,-0.001480634091,0.0002965735039,0.001546827452
1.735326333,0.0001019673655,0.001483996632,0.002321907319,0.002757516445
1.745321333,-0.0012129799,0.0001789743546,0.000802859664,0.001465583739
1.755316333,0.0005239337916,0.001314279973,-0.0002685301006,0.001440120439
1.765310333,0.0006095453864,-0.0004925185349,0.0001243920997,0.0007934692683
1.775305333,-0.001117780805,-0.001212104456,0.0007494360907,0.001811155873
1.785300333,0.000006132642739,-0.00141190365,-0.0004067690461,0.001469343589
1.795294333,0.001427461626,0.002335963072,-0.0003199499915,0.002756218091
1.805289333,0.00007356400602,0.001356335939,0.00078038231,0.001566542496
1.815284333,0.0005396171473,-0.000618664315,-0.0007269668858,0.001096545965
1.825278333,-0.0008267459925,0.00071527611,-0.002610782161,0.002830426177
1.835273333,-0.002212655032,-0.001991028199,0.0001724875765,0.002981574675
1.845268333,-0.0007406513905,-0.00008496385999,0.001571066445,0.001738974731
1.855262333,-0.00002745678648,0.001562201185,0.001547897002,0.002199366169
1.865257333,0.0004102812381,-0.0002990241628,-0.0005201847525,0.0007268688472
1.875252333,0.0001990926685,0.0002208249643,0.0008193851681,0.0008716614075
1.885246333,-0.001286571613,0.001617665403,-0.0006125480868,0.002155765068
1.895241333,0.001371795894,0.0004221722484,0.0006868082564,0.001591150201
1.905236333,-0.00159776723,-0.002279760549,-0.0003179834457,0.002802013875
1.915230333,-0.002381535713,0.00003905384801,-0.002699914854,0.003600385781
1.925225333,-0.001166789327,0.0004276172258,0.0009235206526,0.001548271365
1.935219333,0.0002289733384,-0.001306366874,0.001060939627,0.001698415759
1.945214333,0.0001141608227,0.0009769377066,0.00008347735275,0.0009871212916
1.955209333,0.001389815006,-0.0008787529077,0.0005324862432,0.001728390588
1.965203333,-0.001222654362,-0.001139726257,0.001298731193,0.002116733885
1.975198333,0.001330784522,0.002632375108,-0.0004837225424,0.002989042263
1.985193333,-0.000957360724,0.001149606425,-0.0011138923,0.001865178422
1.995187333,0.0005374716129,-0.001173469005,-0.001603647601,0.002058540956
2.005182333,0.00163099682,-0.0002708532847,0.0002231129911,0.001668319974
2.015177333,-0.001133630751,0.0007099888753,-0.001359869959,0.001907471936
2.025171333,-0.002275930019,0.0003906600177,-0.0005769574782,0.002380200125
2.035166333,0.001704430673,-0.001902055461,-0.0002006528666,0.002561866599
2.045161333,-0.0008171802619,0.0002178165596,-0.0006739915698,0.001081430659
2.055155333,0.0005452930927,0.0002756072208,0.0008243029006,0.001026050276
2.065150333,-0.00007350894157,-0.0002751925495,0.0005333897425,0.0006046810078
2.075145333,0.00058908551,-0.000669074012,-0.0009734268533,0.001319940003
2.085139333,-0.003254959825,0.001808396424,-0.001443178277,0.003993472753
2.095134333,-0.001271970221,-0.001100041671,-0.0001211850904,0.001686026615
2.105129333,-0.001246803673,0.003682113718,0.001171078533,0.004060037655
2.115123333,0.00003444310278,0.0006202775985,0.001372147119,0.001506226524
2.125118333,0.0003969243262,-0.001827244647,-0.001108914847,0.002173951255
2.135113333,0.0001316734124,0.000774663873,-0.0002095653908,0.0008132402208
2.145107333,0.001500431681,0.0006566724041,-0.001337024732,0.002114272691
2.155102333,0.00002370891161,-0.0009137936868,-0.0006789575564,0.001138667808
2.165096333,-0.001042284071,0.000006379093975,-0.00001488591079,0.001042409885
2.175091333,0.0005351062864,0.001338492264,0.0005592916859,0.001546191278
2.185086333,0.001162845409,-0.0003165651578,-0.001355411718,0.001813715487
2.195080333,0.00104113901,0.001256031566,0.001211609226,0.002032137459
2.205075333,0.0002558224369,0.0008251244435,0.001739952364,0.001942603844
2.215070333,0.001023345627,0.0005939621478,0.0001644263975,0.001194597566
2.225064333,-0.0009101616452,0.0004129000008,-0.002725916449,0.002903360315
2.235059333,-0.0003956388682,-0.001317355782,-0.0003626272082,0.001422481937
2.245054333,0.001528248424,-0.0009939400479,-0.002030956326,0.002729147058
2.25504775,0.001470457762,-0.0005414690822,-0.0009869971545,0.001851917434
2.26504275,0.00008038198575,-0.0002151629888,0.001805869862,0.001820418176
2.27503775,0.00006040837616,-0.001931304112,0.001135818427,0.00224135411
2.28503175,-0.001269757515,-0.0007340426091,-0.001383634517,0.002016320206
2.29502675,0.002305536298,0.0001922047231,-0.0002336815232,0.002325305858
2.30502175,0.0008352203295,-0.0004161782563,0.0003601304488,0.00100024561
2.31501575,-0.0003605389502,-0.0003080540337,-0.00001697323751,0.0004745247233
2.32501075,-0.00138679985,0.0004310240038,-0.002512292936,0.00290182896
2.33500575,0.001673172228,-0.0006275824271,-0.00326410355,0.003721254761
2.34499975,-0.001178924809,-0.0002282387577,0.002198477276,0.0025050467
2.35499475,-0.00121967122,-0.0001086629927,0.0003864625469,0.001284040042
2.36498875,0.0005662492476,0.0003471998498,-0.001284244237,0.001445845499
2.37498375,-0.0007626679726,-0.002673091367,0.001157341874,0.003011066274
2.38497875,-0.001387913711,0.002212846652,0.001326422789,0.002929572015
2.39497275,-0.001058746944,0.001793398755,0.001126153278,0.002367582183
2.40496775,0.002483644988,-0.0006400367711,0.002439513104,0.003539684122
2.41496275,0.0009568550158,0.0009416147368,-0.0002731828135,0.001369977622
2.42495675,0.002022715285,0.001355337212,0.0009082313627,0.002598692035
2.43495175,-0.0004513611784,-0.001884664642,-0.001233216375,0.002297065596
2.44494675,-0.0005996375112,0.0003885657061,-0.0002992098453,0.0007746450699
2.45494075,-0.0009407884208,0.001547040767,-0.001268866821,0.002210981908
2.46493575,-0.0001627316233,-0.0001803515479,-0.00003102025948,0.0002448887881
2.47493075,-0.002237600507,-0.0005049908068,0.004082231782,0.004682572805
2.48492475,-0.002075849799,-0.00005866098218,-0.0005943887518,0.002160067473
2.49491975,-0.0002286812523,-0.0008810451254,-0.002154734917,0.00233910628
2.50491475,0.001426861389,-0.00004792911932,0.001385001815,0.00198908538
2.51490875,-0.001334836707,-0.001205338864,0.001310166786,0.002225121978
2.52490375,0.000184292905,0.0002825299744,-0.001467069029,0.001505349991
2.53489875,-0.0008444861742,-0.002539888024,-0.00007769791409,0.002677727589
2.54489275,-0.0005606370978,0.0005293632858,0.0006022624439,0.0009783963895
2.55488775,0.0008569636848,0.001807147986,-0.001458491548,0.002475352136
2.56488275,-0.000008790753782,0.001481243642,0.001417146879,0.002049991532
2.57487675,-0.0007592695765,-0.001202956308,0.00002937356476,0.001422834135
2.58487175,-0.0007847050438,-0.001201125095,0.0003000436118,0.00146577272
2.59486675,0.0001998655498,0.00132222008,0.0003136257874,0.001373525868
2.60486075,0.0008049111348,-0.002030463424,0.002325474285,0.00319037526
2.61485575,-0.000681931735,0.0008915567305,-0.001130776131,0.001593285584
2.62484975,0.0002802214585,0.001297530136,-0.0003329346655,0.0013685591
2.63484475,-0.0009890411748,-0.0007967797574,0.00176537002,0.002174762455
2.64483975,-0.0004799859598,-0.001172855729,0.001037801849,0.001637989548
2.65483375,-0.001245911117,0.0009297099896,0.0006116960431,0.001670576914
2.66482875,0.002095235977,-0.001667814562,-0.0016081098,0.003123721553
2.67482375,0.002342377324,0.001209730865,0.003655095585,0.004506651087
2.68481775,-0.002379641403,0.0001465256792,-0.000129713444,0.002387674299
2.69481275,-0.00005709868856,0.0007148440927,0.0001358037116,0.000729866416
2.70480775,0.001155317063,0.00002945610322,-0.0001929947175,0.001171696265
2.71480175,0.001966249663,0.0003674111795,0.0001383025665,0.002005057683
2.72479675,0.001320202602,0.0007270263741,-0.0002055646619,0.001521104562
2.73479175,-0.00009819690604,0.001468450413,0.00006714300252,0.001473260816
2.74478575,-0.00095764047,0.002845992567,0.002060791478,0.003641924007
2.75478075,-0.002515057102,0.001282184501,0.0001334616682,0.002826184944
2.76477575,-0.0005557454424,0.0008793228772,-0.001081071096,0.001500258789
2.77476975,0.0001063162927,-0.0007476022001,0.0009655681206,0.001225778936
2.78476475,0.002032511635,0.001475241268,0.0003377064131,0.002534065107
2.79475975,0.0009272999596,0.0000603038352,0.001310026506,0.001606141717
2.80475375,0.001610591309,0.0006404952146,0.0004859588807,0.001800109585
2.81474875,0.00003320095129,0.0006852363003,-0.000008323811926,0.0006860906473
2.82474375,0.0002171501983,-0.0008953572251,-0.0003571225097,0.0009881069052
2.83473775,-0.001946934615,0.0005717780441,0.001654363121,0.002618091263
2.84473275,0.0004939264618,-0.0008935106453,0.001012157882,0.001437632846
2.85472775,-0.001584670739,-0.0008290621918,0.0006233362947,0.001893957129
2.86472175,0.001514881384,-0.0001999589149,-0.0008114359807,0.001730109108
2.87471675,0.001644843724,0.002249883022,0.002162782475,0.003527763105
2.88471075,-0.0007826769724,-0.0005665495992,0.002068853006,0.002283355962
2.89470575,-0.0002617626451,-0.0000658754725,-0.001262495411,0.001291028242
2.90470075,-0.001206606627,0.002914808458,0.001366643468,0.003437982296
2.91469475,0.0005002133548,-0.001237059711,-0.0004222017014,0.001399565791
2.92468975,-0.001846241648,-0.003336731577,0.0005970188649,0.003859898621
2.93468475,0.001021183794,0.001660956303,-0.0006408183835,0.002052374328
2.94467875,0.001353800995,0.0006877750857,0.0007269959897,0.001683548298
2.95467375,-0.00121242099,-0.0004134420305,-0.0005350760184,0.001388238205
2.96466875,0.001263747807,0.001126231742,-0.000007619615644,0.001692783068
2.97466275,-0.0001080464572,-0.0003062826581,-0.0004718086566,0.0005727883658
2.98465775,0.00006446242332,-0.0001894375309,0.0004986119457,0.0005372670235
2.99465275,-0.0002809496364,0.002369061345,0.0003207128029,0.002407122983
3.00464675,-0.001001990982,0.001518841134,0.002456558403,0.003057048169
3.01464175,-0.0001532415627,-0.0003911780659,-0.001584255835,0.001639014889
3.02463675,0.0005772635341,0.001735837199,0.0003631775035,0.001865009884
3.03463075,-0.002050477546,0.00009612902068,0.0007179104723,0.00217464811
3.04462575,-0.00006238918286,-0.002373266034,-0.00007004989311,0.002375119169
3.05462075,-0.001798770158,0.001841719029,0.001747557544,0.003111504529
3.06461475,-0.0005679738242,0.001004298334,-0.0004228692269,0.001228831881
3.07460975,0.000415797811,-0.000622893218,0.0004370654933,0.0008671274566
3.08460475,0.003094124142,0.0005425241543,0.002331415191,0.003911960309
3.09459875,-0.0006097999867,-0.001573623624,-0.002201018622,0.002773559141
3.10459375,-0.001829204964,0.000244216295,-0.0001833694405,0.001854523322
3.11458875,0.001152203768,0.000533701852,0.001538364217,0.001994736988
3.12458275,0.001327377046,0.0001126292627,0.000254221377,0.001356187185
3.13457775,-0.0003426912008,-0.0005105505697,0.002544806339,0.002618040956
3.14457275,0.001690138131,-0.001073297113,-0.0001111312304,0.00200521414
3.15456675,0.001400119858,-0.0005217564758,-0.0006645360263,0.001635290056
3.16456175,-0.00005152460653,0.0001406031661,-0.0004458714393,0.0004703460171
3.17455575,-0.001201211242,0.001624782803,-0.0009739762754,0.002243091034
3.18455075,0.002088400535,0.0005834636977,0.0006213920424,0.002255653952
3.19454575,0.001256695366,0.00166390813,0.0003335044021,0.002111657807
3.20453975,-0.0001700982684,-0.001091682585,0.000432522851,0.00118649918
3.21453475,-0.001522984123,-0.001202736283,0.0008940486005,0.002136674543
3.22452975,0.003496483667,0.00001090508886,0.0001417051535,0.003499370987
3.23452375,0.001407233998,-0.0005318471231,-0.001233018585,0.00194512306
3.24451875,0.001696937601,0.00003835302778,0.003402153961,0.003802067826
3.254514625,0.0009568451205,0.002876749961,0.0002953101648,0.003046054992
3.264508625,-0.0005348838167,0.002409969456,-0.0004923815723,0.00251723918
3.274503625,-0.001607871382,0.002735141432,-0.001182939275,0.003386088357
3.284498625,-0.0003661940573,0.002947943751,0.001920832088,0.00353752263
3.294492625,0.0006186428946,0.001201975392,0.0001540911617,0.001360591034
3.304487625,0.0004235823872,-0.001172385877,-0.001078099827,0.001648092813
3.314482625,0.0003982823109,-0.0007148548029,0.002338469494,0.002477516047
3.324476625,0.0004888231633,0.001633537002,-0.0002065346926,0.001717570319
3.334471625,-0.001628656057,0.000007144641131,-0.001752766082,0.002392647182
3.344466625,-0.001485928311,0.000008173054084,-0.0001698522829,0.001495626806
3.354460625,0.0001979884692,-0.001152166165,0.0006746361032,0.001349748191
3.364455625,0.0005931650521,0.0009099873714,-0.0003940310562,0.001155500873
3.374450625,0.0000179221388,-0.001090845559,0.0004896058235,0.001195817335
3.384444625,0.0006431365618,0.0007922142977,0.00164643873,0.001937005065
3.394439625,-0.0006847155746,-0.0003936912399,0.0008533493383,0.001162769669
3.404434625,0.001109463745,0.00118002831,0.000131869223,0.001625043416
3.414428625,0.00006364029832,0.0003379366826,0.003917819355,0.003932881868
3.424423625,0.000486320816,-0.003104002913,0.000472871121,0.003177254966
3.434417625,-0.0008415312041,0.00006542517804,0.0001564875711,0.0008584541812
3.444412625,-0.0005426811986,0.001260982361,-0.001946388278,0.00238180745
3.454407625,-0.0003533305135,0.001101725269,0.0009029275971,0.00146762368
3.464401625,0.0002676313743,-0.00003108871169,-0.001269751112,0.001298021936
3.474396625,0.001104929252,-0.001957086846,-0.002247397555,0.003178341288
3.484391625,0.0008643424371,0.0008406352717,0.002345138229,0.002636935499
3.494385625,-0.0003663043026,-0.000424898928,0.0006548297824,0.0008622760492
3.504380625,0.00009621563368,-0.0005976872053,0.0003571501002,0.0007028823782
3.514375625,0.000695426832,0.003130472032,0.000434914371,0.003236143404
3.524369625,-0.00111577264,0.002923262538,0.002046019305,0.003738530119
3.534364625,-0.0000001745065674,0.0002534436062,-0.001269349828,0.001294404372
3.544359625,-0.0009741330869,0.001232140698,0.0009849178605,0.001853960399
3.554353625,0.001791293384,0.001831085654,0.001467749011,0.002952269266
3.564348625,0.0004863123177,0.002394410316,0.0005333030131,0.002500822372
3.574343625,0.0008508990286,0.000280659413,-0.001850758679,0.002056236016
3.584337625,0.001634156564,-0.001637254143,0.00242255535,0.003349603443
3.594332625,-0.0003472353565,0.0006019315915,-0.000005715060979,0.0006949292738
3.604327625,-0.0003440941218,0.002064967528,0.001115092542,0.00237190283
3.614321625,0.001382699586,0.0005773256999,0.0001627461752,0.001507199199
3.624316625,-0.0005341764772,0.002131231129,0.0004816062283,0.002249318829
3.634311625,-0.0001488170819,-0.001702389214,-0.0003242662642,0.001739374649
3.644305625,0.0003236613702,0.0005764879752,-0.002316497732,0.002408994979
3.654300625,0.0003833163064,0.001362386858,0.002452424727,0.002831504262
3.664295625,-0.001585990191,-0.0009338075761,0.001192067866,0.002192803519
3.674289625,-0.002149248729,0.000304029556,0.0009510518285,0.002369853086
3.684284625,0.0002418293152,-0.000266127754,0.0005515932571,0.000658453127
3.694279625,-0.002537978347,-0.0002062066924,0.0004312183009,0.002582596468
3.704273625,0.001119851135,-0.0005262233317,-0.0007925351383,0.001469384056
3.714268625,0.001077506924,0.001589125488,-0.001576303504,0.002484164593
3.724263625,-0.001163201523,0.0004357708385,0.0003755319631,0.001297674174
3.734257625,-0.001077714027,0.0003739855019,0.001112961327,0.001593742637
3.744252625,-0.001918078167,-0.00002624443732,-0.002716863528,0.003325817201
3.754246625,0.0003501361934,0.001419585664,0.001360968687,0.001997512097
3.764241625,-0.001037040725,-0.001188755035,0.002193736378,0.002702049462
3.774236625,0.00008015532512,0.0000317718368,-0.001521107275,0.001523549037
3.784230625,-0.0001567823347,0.001478251652,0.001255858922,0.001946019085
3.794225625,0.0007446977543,0.0001336217392,0.003708630335,0.003785018953
3.804220625,0.0003181805369,0.0002094879746,-0.00007272255607,0.0003878306792
3.814214625,0.0009565402288,0.0007676865207,-0.0001771184616,0.001239226675
3.824209625,-0.001443596557,-0.0004218036775,-0.001524646534,0.002141596697
3.834204625,-0.0007804693887,0.0004208204336,0.0007643405115,0.001170657389
3.844198625,-0.001774882083,-0.0003424715251,-0.002087617293,0.002761455977
3.854193625,0.0004837448942,-0.002629061695,0.002305266913,0.003529905106
3.864188625,-0.0006302474067,0.002052688273,0.0005319091724,0.002212163716
3.874182625,0.000009443843737,0.0005125822499,0.0003643963719,0.0006289789066
3.884177625,-0.001638325863,0.002421213314,0.0006714756601,0.00299954415
3.894172625,-0.0008218006697,-0.002604437992,0.001962576061,0.003363057893
3.904166625,0.000110159046,-0.0009656921029,0.001235947828,0.001572343247
3.914161625,0.0006736839423,-0.00004663527943,-0.0002761951182,0.0007295948511
3.924156625,-0.0001771987882,-0.0006648660637,0.0002009138698,0.0007168072798
3.934150625,0.0002398522338,-0.0006598059554,-0.0006374492659,0.0009482692442
3.944145625,-0.001969747012,0.0002504483564,-0.002606146038,0.003276373734
3.954140625,0.00129954936,-0.0005748651456,-0.001537419506,0.00209355134
3.964134625,0.002001243876,-0.0009637773037,-0.001601594966,0.00273842111
3.974129625,0.0002571397927,0.0009459754219,-0.0006508464576,0.001176686655
3.984124625,-0.002230519196,-0.001537147444,-0.0004568764707,0.002747139286
3.994118625,0.00004115724005,-0.001409049379,0.001452343655,0.002023960514
4.004113625,0.0004382031038,0.0009020075668,0.001830673893,0.002087344369
4.014108625,0.004533345811,-0.0007028132677,0.001219744678,0.004746888224
4.024102625,-0.0001959884539,-0.0003445562907,-0.001302001067,0.001361005984
4.034097625,-0.001407460426,-0.0004340384621,-0.0001861365745,0.001484581106
4.044092625,-0.001719644293,-0.001845824765,-0.001061051153,0.002736800158
4.054086625,-0.0005931271007,-0.000790680293,-0.0006296189968,0.001171919436
4.064081625,0.00122854556,-0.001619508723,0.002612002194,0.003309786724
4.074076625,0.001864241902,0.0004684096202,-0.00110976526,0.002219545984
4.084070625,-0.002290703589,-0.001117003383,-0.00175024895,0.003091664742
4.094065625,-0.00006882823072,-0.001493041636,0.002979791723,0.003333627059
4.104059625,-0.001115582418,0.002601082437,0.0011102563,0.003040201149
4.114054625,0.002212569816,-0.0000538227614,-0.001967026154,0.002961005567
4.124049625,0.00006920890883,-0.003023009049,-0.0003395626554,0.003042807319
4.134043625,-0.001396861393,-0.001265056664,0.0005858858349,0.001973538022
4.144038625,0.0008532134816,-0.0006451501977,0.0004726332845,0.001169433301
4.154033625,0.0007477521431,-0.000484029064,0.001386630116,0.001648077814
4.164027625,-0.0009704125114,-0.0006312807091,0.0003903865581,0.001221727237
4.174022625,-0.0003645434044,0.002428158652,-0.002721783472,0.003665644773
4.184017625,-0.001219266444,0.001228339272,-0.002800446935,0.003292101314
4.194011625,-0.0004285738105,0.000168134924,0.001313604298,0.001391941491
4.204006625,-0.002008205047,0.00136886281,0.002118538134,0.003224108672
4.214001625,0.0007755972911,-0.001359013142,-0.0004980176454,0.0016420991
4.223995625,-0.001139715197,-0.002575897379,-0.0002150213113,0.002824965876
4.233990625,0.001182561275,0.0004113701871,0.00150191877,0.001955360988
4.243985625,-0.002518281573,-0.000969303539,-0.001559350523,0.003116547046
4.253979208,0.0004889599513,0.001155100064,-0.0004714492243,0.001340000882
4.263974208,-0.001161827822,0.0004042603541,-0.0001561308745,0.001240019021
4.273969208,0.002135165501,0.0006447437918,-0.001996375155,0.0029933493
4.283963208,-0.0009655789472,0.002236476168,-0.0003440068103,0.002460184757
4.293958208,-0.0002614392433,-0.001527901972,-0.0003416099353,0.001587303456
4.303953208,-0.0002753690351,-0.001730439486,0.001141005661,0.002090966963
4.313947208,-0.0002354215831,0.002002247144,-0.0007165491115,0.00213959332
4.323942208,0.0002158670686,0.000276111532,-0.0005423438852,0.0006457345114
4.333937208,0.0003421008587,-0.001984912204,-0.0006619198248,0.002120152661
4.343931208,0.0002079855185,-0.002475337125,-0.0005261354963,0.002539167269
4.353926208,-0.0007129355799,-0.002474538051,-0.00252723461,0.003608120076
4.363921208,0.0003316900693,0.0005473126657,-0.0003270885791,0.0007187185782
4.373915208,0.0002177066635,-0.0008601679001,-0.001251471811,0.001534101268
4.383910208,0.00133628468,0.0003203136148,-0.00115678017,0.001796217671
4.393905208,-0.00009223492816,0.00001271860674,0.001712775906,0.001715304739
4.403899208,-0.0006304035196,0.001249868539,-0.001438371139,0.002007110235
4.413894208,-0.001784617547,-0.000152818393,0.000919058919,0.002013177227
4.423888208,-0.00222890405,-0.0000241312664,0.001875170507,0.002912878303
4.433883208,-0.0007945256075,0.0009404656012,-0.0002127478365,0.001249403109
4.443878208,0.00008038966917,-0.0005959447008,0.001267175423,0.001402621167
4.453873208,0.0006875903346,0.001468005124,-0.0004231329076,0.001675368906
4.463867208,-0.0008867692668,-0.0004091502633,0.0009446749464,0.001358740014
4.473862208,-0.001415140345,-0.0001412362326,0.002433914458,0.002818955384
4.483856208,0.001233730931,0.00122950715,0.0007664369186,0.001902946503
4.493851208,0.000939717982,-0.001321002143,-0.001140386332,0.001982069003
4.503846208,-0.001657547313,-0.0006936623249,0.0001481095096,0.001802932872
4.513840208,0.000006129499525,-0.0005184262991,0.0000280009117,0.0005192181135
4.523835208,-0.0002317600884,0.002485209843,0.000205588527,0.002504445517
4.533830208,0.00118237827,0.0004790506791,0.001454877318,0.001934987322
4.543824208,0.0007530846633,-0.002591721248,0.0008695797296,0.002835546586
4.553819208,-0.0002282902133,-0.0004779703449,-0.0001251109643,0.0005442653999
4.563814208,0.00009972136468,0.001564041595,0.001323382137,0.002051221768
4.573808208,-0.002692869399,0.003664210439,0.001042152289,0.004665197223
4.583803208,0.001583388541,0.002316449303,0.0004341659369,0.002839288063
4.593798208,-0.0006022676826,-0.003213338321,0.0003955501597,0.003293133683
4.603792208,-0.001493971329,-0.0003133059945,-0.00009731191676,0.001529568759
4.613787208,-0.00009581167251,0.003704605158,0.0006590257399,0.003763986475
4.623782208,0.00003261817619,0.001861621626,-0.0002326262183,0.001876383218
4.633776208,-0.0003817698453,-0.001682246802,0.001353552565,0.002192671217
4.643771208,0.001590086846,-0.00002960627899,-0.001591248321,0.002249738636
4.653766208,-0.001926084748,-0.0008818178903,-0.001535588177,0.002616378469
4.663760208,0.0001634019427,-0.001182877691,0.0002538827248,0.001220801485
4.673755208,0.00007791444659,0.001481082407,-0.0001775494311,0.00149372004
4.683750208,-0.00008456641808,-0.00134114339,0.0007871643174,0.001557383939
4.693744208,-0.0003567414824,0.0004429082619,-0.0005606616032,0.0007986073172
4.703739208,-0.0005806520348,0.001142535824,-0.001698831446,0.002128044449
4.713734208,-0.0007633449277,0.0003406580072,0.001998701366,0.002166460363
4.723728208,0.001428657444,-0.0001193808857,-0.00204136828,0.002494493604
4.733723208,-0.003342662007,0.000140277436,-0.0001270881621,0.003348017092
4.743718208,-0.00116879947,-0.002087807981,0.0006175333401,0.002471109426
4.753712208,-0.0007059420459,0.0007111740997,-0.0004445352242,0.001096236442
4.763707208,-0.0007017995231,-0.0004195752554,0.00015264994,0.000831786012
4.773702208,-0.0005036604125,-0.0004744364414,0.001644552802,0.001784185435
4.783696208,0.002989147324,0.0003589089029,0.0007374968845,0.003099632072
4.793691208,-0.001054064021,0.00150300283,-0.0009256472113,0.002055940473
4.803686208,0.001431029523,-0.001436596969,0.001568658743,0.00256365883
4.813680208,-0.001301373821,0.001014842768,0.0003691709135,0.001691084513
4.823675208,0.001047781901,-0.00223546708,-0.00005265325308,0.002469399187
4.833670208,-0.0004965851549,-0.001179523766,0.001684260438,0.002115326536
4.843664208,0.0005062120035,-0.002426806372,0.0003176128957,0.002499303445
4.853659208,-0.0005521281855,0.001206810586,-0.0008568410994,0.001579687942
4.863654208,0.003339116229,-0.0007053320296,0.001590763102,0.003765331022
4.873648208,0.0007196308579,0.000297348015,0.0003278921358,0.0008448654724
4.883643208,0.00009560305625,-0.0007923084777,-0.003415949643,0.003507934525
4.893637208,-0.003485815832,-0.0005550209899,0.0003702664981,0.003549092503
4.903632208,-0.001135358587,0.001124632196,0.002274941886,0.002780143392
4.913627208,-0.001930844854,-0.0007414447609,-0.003857252654,0.004376791087
4.923621208,0.001175937476,-0.003527623136,-0.001229978399,0.003916605775
4.933616208,-0.00007122079842,0.001305481652,0.001869674772,0.002281455347
4.943611208,-0.0002864422277,-0.003602652112,-0.00155789149,0.003935502164
4.953605208,-0.0008712724084,0.0005526783643,-0.001213811105,0.001593080784
4.963600208,-0.001088130288,0.00001667649485,-0.001320926123,0.001711476395
4.973595208,0.00131910108,-0.0001745384652,0.0005989467027,0.001459187613
4.983589208,0.001243174309,0.001047311118,0.0006065341877,0.001735000479
4.993584208,-0.001020512544,0.003428443335,-0.0003519374877,0.003594374709
5.003579208,0.00001972401515,0.0006369433831,-0.001647594152,0.001766536838
5.013573208,0.00003197463229,-0.000963882776,-0.0003812610521,0.001037040198
5.023568208,-0.0008522054413,0.001034371322,-0.00163939409,0.002117496429
5.033563208,0.0002024064306,0.0004767053761,-0.001493452815,0.001580701645
5.043557208,0.0007154580671,0.002189531922,-0.001498567523,0.002748023818
5.053552208,-0.00001078587957,-0.002555155894,-0.0009438310517,0.002723922729
5.063547208,-0.0001240322599,0.0001648720354,0.001060778392,0.00108065609
5.073541208,0.0001537355129,-0.002045817673,-0.0002385778353,0.002065411325
5.083536208,0.0003456145059,-0.0004066091496,0.002109524794,0.002175976848
5.093531208,-0.00007942598313,-0.002435937757,-0.0006441838341,0.002520927221
5.103525208,0.002451850334,0.0024848748,0.000007283873856,0.003490877524
5.113520208,0.0009732635226,-0.001683504786,0.001231272705,0.00230162176
5.123515208,-0.0001323841279,-0.003216515761,-0.001467123511,0.003537788941
5.133509208,-0.001124145347,-0.0006827844772,0.002518829424,0.00284154871
5.143504208,0.000132219051,0.0009600102203,0.0008904758142,0.001316073203
5.153499208,0.0002749644918,0.0006327077281,0.0003858067794,0.00079042483
5.163493208,0.002609800547,0.0006088810042,-0.000107446569,0.00268204022
5.173488208,-0.001188932685,-0.000966911437,-0.001300542732,0.002009947774
5.183483208,0.0007652834756,-0.0009142397903,0.002263860311,0.002558623986
5.193477208,-0.001920780865,-0.001443409827,-0.001333537628,0.002747936256
5.203472208,0.0001861645142,0.00002185837366,0.001454189303,0.001466220156
5.213467208,0.0005768501433,0.000502026407,-0.00005981768481,0.0007670493834
5.223461208,-0.001103983144,0.001285075676,-0.000696213101,0.001831641602
5.233456208,0.001224152278,0.001161505003,-0.0007603952545,0.001850903459
5.243451208,-0.001154753147,0.001539892983,0.0007613230264,0.002069864242
5.253445208,0.002901507542,0.00111112406,-0.001630195649,0.003508686442
5.2634435,-0.0004961040104,0.001457298407,-0.001147551462,0.001920081299
5.2734385,-0.001767763402,-0.001457797596,-0.0000708354637,0.002292417706
5.2834325,0.0004652962089,0.001385163516,-0.0005915635847,0.001576428242
5.2934275,-0.0001640088158,-0.00138931768,-0.001756430254,0.002245473168
5.3034225,0.002254998777,-0.001393796643,-0.001592195127,0.003092373504
5.3134165,-0.0004755402915,-0.001591935987,-0.0001615451183,0.001669279958
5.3234115,0.001901772339,-0.000043729553,0.0008055112557,0.002065792508
5.3334065,-0.0006295624189,0.0005237900186,0.001058245194,0.001338128437
5.3434005,0.0003878583666,-0.0004272654187,0.001536375959,0.0016411706
5.3533955,-0.00004490523133,0.0001066983677,-0.0007965530967,0.0008049210256
5.3633905,0.002462874632,-0.001311472384,-0.001767617185,0.00330305643
5.3733845,-0.001851446228,0.000871254364,-0.0001172563061,0.002049557597
5.3833795,0.0002447789302,-0.0001821548212,-0.0006748558953,0.0007406264801
5.3933735,-0.001370428363,-0.002473272383,0.0004223664291,0.002858940989
5.4033685,0.001830119058,-0.001969393576,-0.0001522486564,0.002692773008
5.4133635,0.0001954709878,0.001549441367,-0.0005964639131,0.00167174958
5.4233575,-0.001013907953,-0.001563786762,-0.0002598140272,0.00188173901
5.4333525,0.0001711987425,-0.002142225159,0.002187631093,0.003066621503
5.4433475,0.0001686945325,0.0009207804687,0.002285121009,0.002469427574
5.4533415,-0.001545049716,-0.0009253227618,-0.0006502152537,0.001914727321
5.4633365,0.0006588280667,-0.001042540884,0.0002902235137,0.001266955249
5.4733315,0.002364316257,-0.0003682286479,-0.00008208642248,0.002394226781
5.4833255,0.003275014227,-0.002484587487,0.00252082292,0.00482218222
5.4933205,-0.001683791867,-0.001654480118,-0.00002808845602,0.002360772855
5.5033155,0.002755051246,-0.0005315439776,0.0009996849112,0.002978626578
5.5133095,0.001002158737,-0.002548089717,0.000008722650819,0.002738094122
5.5233045,-0.001197786885,-0.0008309558034,-0.0004212530912,0.001517443619
5.5332995,0.002015849575,-0.002165731974,-0.002527813427,0.003891514514
5.5432935,-0.001947376179,0.0003120978363,0.001978041138,0.00279326436
5.5532885,0.0008651883109,0.002097214572,0.0009316853248,0.00245252876
5.5632835,0.001441014232,0.002270216355,-0.0005110528436,0.002737074958
5.5732775,-0.00294174999,0.0017053599,0.0000002741580829,0.003400315495
5.5832725,-0.0007560349768,-0.0006056055427,0.001881301054,0.002116043623
5.5932675,0.0006447877968,-0.000119578559,-0.001160295215,0.001332792302
5.6032615,-0.002003824571,-0.003236965043,-0.001162906759,0.003980654184
5.6132565,0.0003927539801,0.001398533117,0.002279761713,0.002703232146
5.6232515,0.0001427205279,-0.001241599675,-0.0003581926576,0.001300092644
5.6332455,-0.0008280017646,0.0003325948492,0.00107725116,0.001398812467
5.6432405,-0.0009210020653,0.0008857042994,0.001723467605,0.002145473723
5.6532355,-0.0007894418668,-0.00118836551,-0.0006395552191,0.00156347751
5.6632295,-0.0004605167778,0.0006183093647,0.001077396213,0.001324826318
5.6732245,0.0009035543771,0.001643093769,-0.0002515210654,0.001891938289
5.6832195,-0.0001856029266,-0.0007342405152,0.0004824182251,0.0008979336971
5.6932135,0.001015216345,0.0004612525227,-0.0005242566112,0.001232178198
5.7032085,-0.0007034306182,-0.002733306028,0.001173122087,0.003056467227
5.7132035,0.0009029880166,0.000005488749593,0.002039448591,0.002230418804
5.7231975,0.001322398544,0.00007392838597,0.0009272524621,0.001616787075
5.7331925,0.0005253144773,-0.001044865698,0.001081982162,0.001593231002
5.7431875,0.0008945279988,0.002063294407,0.0007535796613,0.002371760202
5.7531815,-0.0008567668265,0.001637188601,0.0001895220485,0.001857512993
5.7631765,-0.001633211854,0.000492358231,0.0005420397501,0.001789861637
5.7731715,0.0000009037321433,-0.003513302188,0.001086922595,0.003677593481
5.7831655,-0.002089430112,0.002403354738,-0.000002272310667,0.003184625151
5.7931605,-0.0006942000473,0.0006344830617,-0.002591930097,0.002757278384
5.8031555,0.001475059194,0.001561805839,0.001634644112,0.002699462627
5.8131495,0.0004382904153,-0.0006960220635,0.002103626728,0.002258714372
5.8231445,-0.0006621466018,0.0009589147521,0.0008819699287,0.001461446742
5.8331395,0.0003234893084,-0.002209980739,0.000006322632544,0.002233539831
5.8431335,0.0008513338398,-0.0002465776633,0.003611606546,0.003718772875
5.8531285,0.000340273371,-0.001442603301,0.003143689595,0.003475582616
5.8631235,0.001255073352,-0.0004502634984,-0.0007942923112,0.001552045944
5.8731175,0.001368790399,-0.001758940751,-0.000552211015,0.002296170013
5.8831125,-0.002176352544,-0.001184898429,-0.0002966911998,0.002495700372
5.8931075,-0.0006500949385,-0.002471737796,0.0003121074988,0.002574785866
5.9031015,0.0003110346152,-0.001167070586,0.00009190069977,0.001211297661
5.9130965,0.0005741548957,0.001222583815,-0.0002585712355,0.001375217842
5.9230915,0.0006082731998,0.0005112041254,0.002122455742,0.002266306317
5.9330855,0.0009504893096,0.00004648254253,-0.001079729176,0.001439237871
5.9430805,-0.001249966677,-0.002557438798,0.0003268031869,0.00286525919
5.9530755,0.002800701419,-0.0002277055755,-0.0001483047381,0.002813853685
5.9630695,0.001709782984,-0.002127603861,-0.00101418246,0.00291180736
5.9730645,0.002756937873,0.0003177106846,-0.0001587751321,0.002779722298
5.9830595,-0.001316782669,0.0005038955715,-0.001569511369,0.002109785127
5.9930535,-0.001215049997,-0.001341941301,0.0001354444539,0.001815350696
6.0030485,-0.00274890312,0.0001749952789,-0.0005063802819,0.002800627198
6.0130435,0.0004024154041,-0.001484686742,0.0008552939398,0.001760045625
6.0230375,-0.0003006585175,-0.002146324608,-0.0008905693539,0.00234312156
6.0330325,-0.0008074580692,0.0004848785466,0.00126952061,0.001580752453
6.0430275,0.0001940604998,0.0006360538537,0.0005122885341,0.000839442389
6.0530215,-0.00003390596248,-0.000618561171,-0.00110984291,0.001271030613
6.0630165,-0.001125904266,-0.0009654897731,-0.002261763439,0.002704700495
6.0730115,-0.000121626188,0.0002771411091,-0.0009458954446,0.000993135598
6.0830055,0.0002413833281,0.0003406200558,0.0008773860754,0.0009716451301
6.0930005,-0.0001575581264,-0.0007036053576,0.0007223902503,0.001020653093
6.1029945,-0.0001093655592,0.001379972789,-0.0002500968985,0.001406710412
6.1129895,-0.0004278796259,-0.0001984827686,0.001489213668,0.001562124749
6.1229845,-0.001836100593,0.001325007295,0.001295350026,0.002608609095
6.1329795,-0.0002451281762,-0.002504618606,-0.0006761881523,0.002605845851
6.1429735,0.0006628781557,-0.001365482341,0.000095350435,0.001520868561
6.1529685,0.001442385372,-0.002029674826,0.0004918951308,0.00253811274
6.1629625,-0.0001679393463,-0.0007711893413,-0.0004587452859,0.0009128986042
6.1729575,-0.0004363860935,0.001283972058,0.0005226295907,0.00145332679
6.1829525,-0.001198601327,-0.0006072551478,0.002855200786,0.003155562626
6.1929465,-0.001422839472,0.0005967600737,-0.0007110383012,0.001698873219
6.2029415,-0.001381928101,-0.0009407585021,0.001410312485,0.002187174694
6.2129365,0.0002460622927,0.001167399925,0.002103799721,0.0024185414
6.2229305,-0.003634721041,-0.0003197772894,0.001945312833,0.004134936103
6.2329255,-0.001338277129,-0.0008952862117,-0.00005951488856,0.001611230926
6.2429205,-0.00006501853932,0.001206850284,-0.0006960226456,0.001394690841
6.2529145,0.00175711629,-0.000124996528,0.001329044928,0.002206681266
6.262906458,-0.0005522846477,0.001330658561,-0.001702318783,0.002230147927
6.272901458,0.001649350626,0.0005045461003,-0.001420289977,0.002234311499
6.282895458,-0.0009776190855,-0.001758767758,0.0007329232758,0.002141536745
6.292890458,-0.00007107912097,0.0003445969196,-0.001595478505,0.001633814842
6.302885458,-0.0009241424268,0.001809853595,-0.002343083732,0.003101556163
6.312879458,0.0008529850747,0.001554456539,0.000158956158,0.001780220697
6.322874458,-0.001358453184,0.0007556505734,0.002126804087,0.002634330744
6.332869458,0.001813638024,0.0005628376966,-0.001251415582,0.002274227367
6.342863458,-0.0005575988907,-0.002328809351,-0.001715551596,0.002945740449
6.352858458,0.001290368615,-0.0008813813329,-0.0007541505038,0.001735115903
6.362853458,0.00104430737,0.00003360002302,-0.001292987843,0.001662385156
6.372847458,-0.0004915377358,0.0007209618343,-0.002997410949,0.003121837233
6.382842458,-0.0003063259646,-0.0002441867255,0.001431938144,0.001484557039
6.392837458,-0.0003867533524,0.001917234855,-0.0006607738324,0.002064458695
6.402831458,0.0008724690415,0.002308772644,-0.00345421955,0.004245381732
6.412826458,0.00224559498,0.001300233533,-0.0004288686905,0.002630063195
6.422821458,-0.001181930886,-0.002144583501,0.001565596554,0.002906422471
6.432815458,-0.0005142764421,0.0001396096777,0.0007248367183,0.0008996440347
6.442810458,-0.002064194297,-0.002595373197,0.0001647415338,0.00332024094
6.452805458,-0.0004356713034,-0.0003828189801,-0.00006002932787,0.0005830637841
6.462799458,-0.001166859991,-0.001314626075,-0.001762653235,0.002489327296
6.472794458,-0.0003426115727,0.0006230899598,0.001079472131,0.001292626733
6.482789458,0.0002225374337,-0.004498710856,0.0015567214,0.004765637816
6.492783458,-0.0008395313052,0.001698198728,-0.0006656863843,0.002007941756
6.502778458,0.0005427463911,-0.000006891554222,-0.0009986247169,0.001136605676
6.512773458,0.002860761946,-0.001707852585,0.001156937797,0.00352692847
6.522767458,0.0006326197181,0.000923177111,0.0008610206423,0.001412026994
6.532762458,-0.001530133421,0.001023311983,-0.001772579271,0.002555486837
6.542757458,-0.0003172876313,-0.0001428590622,-0.001563987462,0.001602228739
6.552751458,0.001453448087,-0.001396675128,-0.00002627819777,0.002015912523
6.562746458,-0.000444317353,-0.003250239417,0.0003012297675,0.003294269805
6.572741458,0.0009778107051,-0.002294164617,-0.0001893244917,0.002501029553
6.582735458,-0.001366527635,0.001255784417,-0.0005187663483,0.001927047172
6.592730458,0.00001991400495,-0.002232423984,0.001536395168,0.002710096589
6.602725458,0.001397004584,-0.00107047637,0.001243278966,0.00215482808
6.612719458,-0.0003966343356,-0.0007090852596,-0.0020651659,0.002219241063
6.622714458,0.0002015843056,0.003864057362,0.002174006775,0.004438229488
6.632709458,0.001196008641,-0.00126705505,0.0004954162287,0.001811436559
6.642703458,0.001346603967,-0.001345455414,-0.001556265051,0.002458770714
6.652698458,0.001449135831,-0.0003182741348,0.0009031642694,0.001736951
6.662693458,0.001363254618,-0.0005989384372,-0.0003963253694,0.001540864758
6.672687458,0.0002545807511,0.001697239,-0.0005518539692,0.001802768534
6.682682458,-0.0008977433899,0.0006607992109,0.001269530854,0.001689469556
6.692677458,-0.001511335606,-0.001437239116,0.001972339116,0.002870524896
6.702671458,-0.0008758972399,0.001382903196,-0.001709635369,0.002366953806
6.712666458,-0.00009585730731,0.0007562614046,-0.001493919408,0.001677174747
6.722661458,-0.0001487673726,-0.001327700447,0.001022096607,0.001682141992
6.732655458,-0.00008032401092,-0.0002003842965,-0.001532673836,0.00154780325
6.742650458,-0.0009585190564,0.0003502895124,0.00001251720823,0.001020596984
6.752645458,-0.0009758295491,0.0004634738434,0.0005701831542,0.00122154007
6.762639458,-0.001690925565,-0.001937394496,0.001500397804,0.002977233661
6.772634458,-0.001230997615,0.0005012623733,0.0001107604476,0.001333749217
6.782629458,0.0003712968901,-0.001223163679,0.001687118318,0.00211668585
6.792623458,-0.0002191257663,0.00007006735541,0.001689248951,0.001704842384
6.802618458,-0.001121727284,0.001693751314,0.0004813817795,0.002087772504
6.812613458,-0.001430653967,-0.000973404618,-0.000605986861,0.001833441409
6.822607458,0.0006705801934,0.0001676212996,0.001256518415,0.001434089685
6.832602458,0.001302548219,-0.0002108137123,0.0007720893482,0.001528789143
6.842597458,-0.002551035024,0.0009188955883,-0.001181356376,0.002957659832
6.852591458,-0.003690601792,0.001444337191,0.0004426392261,0.003987804032
6.862586458,-0.003160476219,-0.000438936986,0.0001648062607,0.00319506443
6.872581458,-0.001545268926,-0.0002621030435,-0.000453313347,0.001631578086
6.882575458,-0.0001714653336,0.0008426917484,-0.00109762128,0.001394382378
6.892570458,-0.001179471845,-0.0008292407729,-0.0005588638014,0.001546325593
6.902565458,-0.00121152855,0.001386759686,-0.001316248672,0.002263496062
6.912559458,-0.0004964697873,0.001381699694,0.0004717976553,0.001542131422
6.922554458,-0.001459111692,-0.00008744304068,-0.0004291557707,0.001523426366
6.932549458,-0.0006559023168,-0.001783077605,0.0002044102876,0.00191085247
6.942543458,0.000402522739,-0.001461795298,-0.00113456801,0.001893703942
6.952538458,-0.00211309921,-0.0009459410794,0.001060409471,0.002546460493
6.962533458,-0.0007537018973,0.0013785396,0.0006006453186,0.001682026391
6.972527458,0.0002670877147,0.000859489548,-0.002364251763,0.002529771635
6.982522458,-0.0004528048448,-0.002288297284,0.0001947088167,0.002340779403
6.992517458,-0.0007217841921,-0.001935162116,0.0009079034207,0.002256127979
7.002511458,0.001318207476,0.0002798347268,-0.001577782212,0.00207493979
7.012506458,0.001399966655,0.0001661176793,-0.001482174732,0.00204556683
7.022501458,0.00141370995,-0.001183068845,0.0002046397422,0.001854752042
7.032495458,-0.001354379579,0.0002113622613,0.001191607327,0.001816300105
7.042490458,-0.0004083000822,0.001010570093,-0.002011686098,0.002287977672
7.052485458,-0.0009577102028,0.001264103106,-0.0009647976258,0.001856340474
7.062479458,-0.002171745989,-0.001224613283,0.0004592841724,0.002535172634
7.072474458,-0.0004875629675,0.001529361703,-0.00232212129,0.002822926169
7.082469458,0.0001036419999,0.00240486837,0.0003088759258,0.002426837011
7.092463458,0.00005410728045,0.0004628913011,0.002043658867,0.002096124405
7.102458458,0.002273203339,0.0006245913683,-0.0002002503024,0.002365939133
7.112453458,0.001452150755,0.0009393770015,-0.0006830814527,0.001859508332
7.122447458,0.0007181814872,0.0004586325958,-0.0003862218,0.0009355724372
7.132442458,-0.001489046495,0.0001158837695,-0.000004590838216,0.001493556021
7.142437458,0.0002031598706,-0.0008907180745,-0.0009240451036,0.001299427557
7.152431458,-0.0008852740284,0.00008213473484,0.003282950493,0.003401208632
7.162426458,0.002161875367,-0.001521779457,0.002770041814,0.003829183917
7.172421458,-0.001489585033,-0.0001049777493,-0.0001607669983,0.001501908761
7.182415458,0.0007075278554,0.001152360812,-0.0009362129495,0.001644696262
7.192410458,-0.001573735848,-0.001186693553,0.002001786372,0.002809276559
7.202405458,0.00255988678,-0.0009966210928,-0.0003651430598,0.002771209732
7.212399458,0.0003832853399,0.001885984442,0.0008652373217,0.002110090185
7.222394458,0.001132259844,0.001070552738,-0.0005680553149,0.001658548269
7.232389458,-0.000537542277,-0.00008046557195,-0.001091100159,0.00121898563
7.242383458,-0.0007168969605,0.0004283294547,-0.002753753215,0.002877596939
7.252378458,-0.002556874882,0.001590000349,0.001260429621,0.003264106785
7.262373625,0.00135604199,0.0002998760901,-0.0006153280265,0.001519014196
7.272367625,-0.0001315997215,0.002056230791,-0.001772471471,0.002717914397
7.282362625,-0.00097190612,-0.0004007993266,0.001623503864,0.001934168142
7.292357625,-0.00141825201,0.0003779090475,0.001210447401,0.00190248178
7.302351625,0.001559993951,0.001599290757,-0.0005529570044,0.002301537204
7.312346625,-0.001169479801,-0.001689446857,-0.001547913998,0.002572537937
7.322341625,0.000003115274012,-0.0006299999077,0.0003920932068,0.0007420557064
7.332335625,-0.001232325216,-0.0005530347116,-0.0007237712853,0.001532422169
7.342330625,0.002421475481,-0.0005505164154,-0.0001617450034,0.002488528335
7.352325625,0.0004051961005,0.0004750669468,0.000794862397,0.001010781239
7.362319625,-0.0003656937042,-0.001702576177,0.001107019838,0.002063489871
7.372314625,-0.0009673017776,0.0007733647944,-0.0009995405562,0.001591492117
7.382309625,0.001187560614,-0.002200000221,-0.001411456265,0.002870977181
7.392303625,-0.0006292479811,0.001562247635,0.001081528841,0.002001568217
7.402298625,-0.002564774361,-0.001159244217,0.0003282553516,0.002833666574
7.412293625,-0.001531201415,0.0008975149831,0.001035857247,0.002055020962
7.422287625,0.001015586779,0.0003222147934,0.000561141409,0.001204208686
7.432282625,-0.001662754221,-0.0009513087571,0.00005247758236,0.001916375184
7.442277625,0.0005014052149,-0.0003567261156,-0.001486080815,0.001608445492
7.452271625,0.0005251073744,-0.0001929416321,0.001517698518,0.00161752064
7.462266625,0.004101173021,0.001659402624,-0.0003091037506,0.004434950095
7.472261625,0.0006087035872,0.001024238765,0.0002224631608,0.001212054027
7.482255625,0.001922442229,-0.002316812985,-0.00001735391561,0.003010599224
7.492250625,0.0002915224759,-0.001912279055,0.002677232493,0.003302933599
7.502245625,0.0001503565582,-0.0005969055928,-0.0001371934777,0.0006306547642
7.512239625,-0.0001314057736,0.002792765852,-0.000552912883,0.002850003726
7.522234625,0.0001810679678,0.0005321733188,-0.00007842271589,0.0005675774595
7.532229625,0.0009025183972,-0.001579979667,0.002176209353,0.002836681574
7.542223625,0.0004005800001,0.0002469106112,0.0006644552341,0.0008142050998
7.552218625,0.00185466581,-0.0003435120452,-0.00001784658525,0.001886293798
7.562213625,0.0009535448626,-0.0007439630572,0.0002432897454,0.001233660705
7.572207625,-0.002317882143,0.001491228119,0.001303494209,0.003048841761
7.582202625,-0.0011192495,-0.001799345016,-0.0005369539722,0.002186019556
7.592197625,0.0002493490465,-0.00066217524,0.001753364573,0.00189075073
7.602191625,0.001953480067,-0.001355342101,-0.0003383508301,0.002401565712
7.612186625,0.001372111961,-0.003192390315,-0.00005738728214,0.00347524682
7.622181625,0.0007821305189,0.0001520987134,-0.001006017905,0.001283329339
7.632175625,0.0018444655,0.001057040761,0.003226810135,0.003864154733
7.642170625,0.000009545241483,0.0002911970951,0.0005534492666,0.0006254541954
7.652165625,0.000270268647,0.0004163656849,-0.001587199629,0.001663011782
7.662159625,0.0005753228907,-0.0001773505937,0.00288088643,0.002943120161
7.672154625,0.001101563452,-0.001025301171,0.0007823156193,0.00169608439
7.682149625,0.001626461279,-0.0009559742175,0.000294079422,0.001909383592
7.692143625,0.0001284331083,0.001720768865,0.001617670408,0.002365248
7.702138625,0.00100692967,0.0003110722173,0.001503254636,0.001835877933
7.712133625,-0.0006972271949,-0.00219842419,0.0001650161576,0.002312233771
7.722127625,0.001730311895,-0.0009042727761,-0.0005015136558,0.002015739183
7.732122625,-0.0004691927461,-0.00007123593241,0.001189060975,0.001280266532
7.742117625,0.001568163629,-0.000425006263,0.001236179611,0.002041545375
7.752112625,-0.0007597055519,0.001316168346,0.0004739830038,0.001591889295
7.762106625,-0.0002359065693,0.0006939049345,0.0001536378404,0.0007488394711
7.772101625,-0.0005389743019,0.001709101954,-0.0000367781613,0.001792449559
7.782095625,0.001213171519,0.001737334067,0.0001918678172,0.00212765788
7.792090625,0.0006275423802,-0.001537821256,-0.0004366381327,0.001717369067
7.802085625,-0.0003330853069,0.002730845939,0.002206215169,0.003526450161
7.812080625,0.0001670563361,0.0005779464263,-0.001371741877,0.00149786704
7.822074625,0.0006943999324,0.004085486755,-0.001695840852,0.004477641063
7.832069625,-0.001200971776,-0.001729791518,0.0007553326432,0.002237194516
7.842064625,0.001054838882,0.00008734385483,-0.0001321774907,0.001066670007
7.852058625,0.0003997014137,0.0007456773892,-0.001244047307,0.001504476551
7.862053625,-0.001401603688,0.001625603996,0.001558080432,0.002652300112
7.872048625,-0.00160213979,0.003684760071,0.002261687536,0.004610806784
7.882042625,0.0008007172728,0.00178896822,-0.00117271347,0.002284034222
7.892037625,-0.0004730725195,-0.0004326407798,0.0008813826134,0.001089867407
7.902032625,-0.000009146519005,-0.001888129627,-0.0009238917846,0.002102068785
7.912026625,0.001228690729,-0.002986151027,-0.0002847331343,0.003241581685
7.922021625,-0.0006526289508,0.0002980746794,-0.001226722263,0.001421133552
7.932016625,-0.001064087264,0.001837115502,0.002428998938,0.003226036409
7.942010625,0.001816585776,-0.000847650459,-0.002396517899,0.003124386856
7.952005625,0.001152926008,-0.001158441184,-0.001403957722,0.002154604753
7.962000625,-0.00114825624,-0.0003547917586,0.001369862934,0.001822332034
7.971994625,0.0001012989087,-0.0001529240981,0.001407946111,0.001419844886
7.981989625,-0.000634015305,-0.0005018638913,-0.0007436125888,0.001098545609
7.991984625,0.000293031102,-0.00006111082621,-0.002434986178,0.00245331601
8.001978625,-0.00006993371062,-0.002784952987,-0.000118840253,0.002788364551
8.011973625,-0.000709624961,-0.0007881147321,0.001328854007,0.001700160401
8.021968625,0.0003998263273,-0.0003129632678,0.0004985933192,0.0007116195592
8.031962625,0.0009534973651,-0.00182031258,0.00134068483,0.00245359551
8.041957625,-0.0001299871365,-0.001171608921,0.0002151452936,0.00119827026
8.051952625,0.00006309198216,-0.003095210297,0.001232739189,0.003332259487
8.061946625,0.0004709190689,0.001443273504,0.002607644536,0.00301738516
8.071941625,-0.0009919553995,-0.002052924363,0.001476067584,0.002716109252
8.081936625,0.001650296152,0.001456528087,-0.000579272164,0.002276072867
8.091930625,0.002154166345,-0.001960840309,-0.0001648843754,0.002917621328
8.101925625,0.00103997346,0.001834766823,0.0009203148074,0.002301063545
8.111920625,-0.001339561073,-0.000391635811,0.001587702893,0.002113907035
8.121914625,0.0003385936143,0.0004999211524,0.0008005048148,0.001002683775
8.131909625,0.0008842753014,0.002943637781,0.001345920144,0.003355360968
8.141904625,-0.0004808222875,0.0003866436891,0.0009969318053,0.00117241479
8.151898625,0.002769832034,-0.002168392995,-0.0002459655516,0.003526243997
8.161893625,-0.001893710811,-0.0004917811602,0.001795741846,0.002655687881
8.171888625,0.0008432198083,0.001143666101,0.002080966253,0.002519804028
8.181882625,0.0006618662737,0.00006524473429,-0.0009245286928,0.001138892946
8.191877625,-0.001060666284,0.0009803069988,0.0007687091129,0.00163613217
8.201872625,-0.0002905178117,-0.001237877179,0.0009577241726,0.001591846758
8.211866625,-0.0007001119666,0.0007879894692,-0.0001046108082,0.001059258038
8.221861625,-0.001051632804,0.0004487519618,-0.001393319573,0.001802400985
8.231856625,0.0005987280747,-0.0003336849622,-0.002426626161,0.00252157401
8.241850625,0.001207175315,-0.00157509069,0.002512841951,0.003201961523
8.251845625,0.0017166381,0.002786101773,-0.002095225733,0.003885766376
8.261840333,-0.0007523390232,-0.00093687349,-0.000234132749,0.001224158522
8.271834333,-0.0002516647801,-0.001655394211,0.0002819878282,0.001697993608
8.281829333,0.001746657887,0.001565287588,-0.00124464382,0.002655198155
8.291824333,0.001886739978,-0.001379902242,-0.002552255988,0.003460914412
8.301818333,-0.002027672715,0.001729603508,0.0002067886526,0.00267315291
8.311813333,0.00300064194,-0.001584700542,-0.001825203188,0.003853114913
8.321808333,0.00103564118,0.002927824855,-0.001035260619,0.003273602845
8.331802333,-0.0007832979318,0.000231374288,-0.0007665476878,0.001120127256
8.341797333,0.000372200273,0.0005760204513,0.0024776645,0.002570827489
8.351792333,-0.002515731612,0.0006516542053,0.00002169725485,0.002598851577
8.361786333,0.0007495032623,-0.0009121922776,0.001620778348,0.002005186362
8.371781333,0.0007409811951,0.001042567892,0.0002875998616,0.001310997567
8.381776333,-0.00027363759,-0.0004203510471,-0.001914290944,0.001978909385
8.391770333,-0.0005527368048,-0.00006481888704,-0.001106554177,0.00123862085
8.401765333,-0.0006480074953,-0.002587405965,0.00093666045,0.002826997725
8.411760333,0.0002633261029,0.002729328815,0.001139593311,0.002969385345
8.421754333,0.001286482904,0.0007046865067,0.001915117726,0.00241232196
8.431749333,0.001093137311,0.0008016255451,-0.000006619258784,0.001355579769
8.441744333,0.0004128196742,0.001730231568,0.0009114810964,0.001998729384
8.451738333,0.0008868621662,0.0009555181023,-0.0005940037663,0.001432612934
8.461733333,-0.001056295238,0.0006090560928,-0.001309531741,0.001789296603
8.471728333,-0.0002251226688,0.000008513219655,0.001131521538,0.001153730333
8.481722333,0.0004318160936,0.002623585751,-0.001320692245,0.00296882053
8.491717333,-0.0009197380859,0.0008312782738,-0.0003608890111,0.001291194251
8.501712333,0.001107413555,0.000481531024,0.001436403836,0.001876564118
8.511707333,-0.00009979726747,-0.002275373321,0.000641982886,0.002366310476
8.521701333,-0.001158692176,-0.0009197213221,-0.0005215816782,0.001568598838
8.531696333,0.004146857187,-0.001148753101,-0.0001082590315,0.004304390577
8.541691333,-0.001350219129,-0.001550314249,0.002509921789,0.003244421883
8.551685333,0.0006849684287,-0.0008709421381,-0.0008541832212,0.001399053584
8.561680333,-0.000994615024,-0.001438588137,0.0003938142909,0.001792731036
8.571675333,-0.0006199083291,0.0003553170245,0.001914479421,0.002043469593
8.581669333,0.00001035397872,-0.000192262698,0.001038030838,0.00105573679
8.591664333,0.0006782747805,-0.0008974678349,-0.001839248347,0.002156000852
8.601659333,0.0001136041246,-0.0001724399626,-0.00007907697,0.0002211212451
8.611653333,0.002589278622,-0.001116796862,0.001740128384,0.003313554859
8.621648333,-0.0007777574938,0.002726141363,-0.002130127745,0.003546011515
8.631643333,0.001123473281,0.000622510328,0.0009921621531,0.00162299016
8.641637333,-0.0007125268457,0.0004169391468,-0.0005386975245,0.0009857625378
8.651632333,0.001065399498,0.000274193706,-0.0006114018615,0.001258598631
8.661627333,-0.003392920829,0.002734371927,-0.001917157322,0.004760692574
8.671621333,0.00135229947,0.001043797354,0.0004559855442,0.001768092077
8.681616333,0.000767769292,-0.0002481853589,0.001147770905,0.001403012369
8.691611333,0.00161092612,-0.001765121939,0.001017009723,0.002597122869
8.701605333,0.0002316322643,-0.001728601987,-0.00003758980893,0.001744457316
8.711600333,0.002438327298,0.0003577182069,-0.001869311905,0.003093174635
8.721595333,-0.002840626519,0.001380781294,0.0007291476941,0.00324150773
8.731589333,0.0005133587401,-0.0007625308353,0.00113474729,0.001460356766
8.741584333,-0.001617242582,-0.001036224188,-0.00100392499,0.002167279291
8.751579333,-0.0006505150814,-0.0005600508302,0.0007678761613,0.001151720714
8.761573333,-0.001694440842,0.0007098084316,-0.0005745880771,0.00192486603
8.771568333,0.000467246864,0.001378261833,-0.002379145939,0.002788953336
8.781563333,-0.002206036821,0.0001531860325,0.0006584352814,0.002307293097
8.791557333,-0.0001908228733,-0.002873230027,0.0006885291077,0.002960732424
8.801552333,-0.002005120507,0.001362425974,-0.003755255137,0.004469748754
8.811547333,0.0004772117827,-0.001163315959,0.0007683903677,0.001473587074
8.821541333,-0.0009293359471,0.001584425103,0.002016851213,0.002727958399
8.831536333,0.001506391214,0.0003202224616,0.0002208151855,0.001555800842
8.841531333,0.0003652800806,0.001051702769,0.0004945439287,0.001218229022
8.851525333,-0.001687218202,-0.0005384706892,0.0006846936885,0.001898805254
8.861520333,-0.0009418650297,0.001566183986,0.00005142670125,0.001828301594
8.871515333,0.001156705897,0.0007240923587,-0.001222096849,0.001831883999
8.881509333,-0.001621118514,-0.00302646542,-0.00181659509,0.003884267742
8.891504333,-0.001915131463,-0.001503936015,-0.000470100902,0.00248002962
8.901499333,0.0007456939202,0.001905149082,-0.002608895767,0.003315416953
8.911493333,-0.000247398857,-0.001858696574,-0.0005694471765,0.001959650284
8.921488333,-0.001115357387,-0.0004446583334,-0.0007362576434,0.001408480902
8.931483333,0.00001595332287,0.0009700127412,-0.001309369924,0.001629610022
8.941478333,0.0007011096459,-0.002242777264,0.002057912759,0.003123557189
8.951472333,0.0009730185848,0.0005463514244,0.00008344522212,0.001119030004
8.961467333,0.001608327497,0.0002396421041,-0.001124687842,0.001977136418
8.971462333,0.001638421323,-0.00005064229481,-0.0005931208725,0.001743210097
8.981456333,-0.0007197993109,0.0008424664848,0.000270107761,0.001140534536
8.991451333,-0.0007296529366,0.002826255048,0.0008019410307,0.003027081172
9.001446333,0.0005669191014,-0.001064178068,-0.001669467194,0.002059367121
9.011440333,-0.001547897235,0.0009393180953,0.0007175239734,0.001947599801
9.021435333,-0.000986795756,-0.001173829893,-0.001087213634,0.001879807428
9.031430333,-0.0005281994818,0.0008685484063,-0.0002078377875,0.001037577743
9.041424333,-0.0007301791338,0.001877313945,-0.001198381186,0.002343840157
9.051419333,-0.001451363205,-0.00126787927,0.001024825731,0.002182714085
9.061414333,-0.0002743743826,-0.0009054404218,-0.001093784231,0.001446190721
9.071408333,-0.001328986138,-0.001988281729,-0.001690864912,0.002928906373
9.081403333,-0.001174450968,0.002153160516,0.0008799390635,0.002605710659
9.091398333,0.001348361606,-0.001134245656,0.00005675607827,0.001762899169
9.101392333,-0.00127153215,0.0007490686839,-0.002053410746,0.002528713822
9.111387333,-0.0002845646814,-0.001044303877,-0.0001870674314,0.001098426998
9.121382333,-0.000588695053,0.0002667990047,0.0007141773822,0.0009632200723
9.131376333,-0.001667807926,0.0001797135919,-0.001877344679,0.002517598717
9.141371333,-0.0004175051581,-0.000147749437,0.001240114914,0.001316824003
9.151366333,-0.002038837643,-0.001195437042,0.002966375789,0.003792797645
9.161360333,0.0007822893094,0.001350387814,0.0004983267281,0.001638247033
9.171355333,-0.0006486271741,0.000457696151,0.0003350749612,0.0008616717514
9.181350333,-0.000544413575,0.002520432463,0.001648077625,0.003060249303
9.191344333,-0.001519663259,0.001615756773,0.0006845459575,0.002321346493
9.201339333,0.0001176849473,-0.001885519363,0.001246006461,0.002263087518
9.211334333,0.00007587345317,0.0005611266242,-0.0000996888848,0.0005749415127
9.221328333,0.0004874211736,0.0006291882601,0.001293244539,0.001518531759
9.231323333,-0.0005493473727,-0.001016379101,-0.0004255597014,0.001231222999
9.241318333,0.00005885167047,-0.001030399231,-0.001134578604,0.001533771399
9.251313333,-0.001627461752,-0.0002759257331,-0.001380388392,0.002151798986
9.261306833,-0.002108137356,0.001740288455,-0.0004962603562,0.002778330679
9.271301833,-0.0006513881963,0.001684894785,0.001988202799,0.002686285054
9.281296833,-0.0002082083374,0.0006785811856,0.0004232034553,0.0008263923413
9.291290833,-0.001365351724,0.0004490166903,0.001812308328,0.002313063508
9.301285833,-0.001884867204,-0.0002477248199,-0.0009780037217,0.002137892243
9.311280833,-0.001376469852,-0.001219245838,0.0001999124652,0.001849647172
9.321274833,0.0006393378135,0.0003057445865,0.0002387427958,0.0007478173002
9.331269833,-0.0003942348994,-0.0002410023008,-0.00187660614,0.001932654618
9.341264833,-0.00008431077003,0.0001095817424,-0.0004354940029,0.0004569151899
9.351258833,-0.0009527676739,-0.001571405446,0.0004737091949,0.001897757023
9.361253833,-0.00001647882164,0.0004906740505,0.00108228426,0.001188432495
9.371248833,-0.0006851984654,0.0004693688825,-0.000852768484,0.001190385724
9.381242833,0.0005733375438,-0.0002865109127,0.001081355847,0.001257034173
9.391237833,0.0003933077678,-0.001233264571,0.001235819189,0.001789659624
9.401232833,-0.001627979451,0.001283259015,-0.0009638135089,0.002286046209
9.411226833,-0.0004766948987,0.001590587781,-0.0004711287329,0.001726027172
9.421221833,0.0004425416701,-0.001085845521,0.002362822648,0.002637770743
9.431216833,-0.001232586685,-0.0007492217701,0.001329515944,0.001961686989
9.441210833,-0.00009325402789,-0.0003604446538,-0.000590473006,0.0006980508814
9.451205833,-0.0008157697739,-0.0004714985844,0.0002151331864,0.0009664747938
9.461200833,0.00170448469,-0.001215416007,-0.001084497664,0.002357676677
9.471194833,0.001903422875,0.001571582165,0.00005719950423,0.002469040487
9.481189833,0.0002760041971,-0.0005187559873,-0.001361556235,0.001482943516
9.491184833,0.0006587004755,-0.001137141837,0.001082426519,0.001702534887
9.501179833,-0.002257323824,-0.001855837414,-0.0003710197052,0.002945725543
9.511173833,-0.0008778062183,0.002197760157,0.000285183196,0.002383699419
9.521168833,-0.0001095850021,0.002025922993,0.0007677579997,0.002169291403
9.531163833,-0.00140707707,-0.002002108144,-0.0006200152566,0.002524425047
9.541157833,0.000799895497,-0.0004337492865,-0.001499229809,0.001753756332
9.551152833,-0.002293099649,0.0008895754581,-0.0001391535625,0.002463536931
9.561147833,0.0003116402077,0.001610453241,-0.001673160703,0.002343106058
9.571141833,-0.000705953571,0.0002546380274,-0.0009748798911,0.00123028524
9.581136833,0.0008451975882,0.001810829388,0.0001124623232,0.00200152687
9.591131833,-0.0003010268556,-0.00133995642,0.001024328638,0.001713286179
9.601125833,0.001158990664,0.00002184836194,-0.0006563222269,0.001332101939
9.611120833,-0.001933471882,-0.001639165217,-0.0009234372992,0.002697760659
9.621115833,-0.0009634013986,-0.0007950293366,0.001738499035,0.002140699137
9.631109833,-0.0005250450922,-0.00207441207,0.0009890854126,0.002357360333
9.641104833,0.001090089092,-0.0001124008559,-0.0009491223609,0.001449745301
9.651099833,-0.0009600121994,-0.001309225336,-0.0007374010747,0.001783102562
9.661093833,0.0003054594854,0.00002749171108,0.0001562326215,0.0003441946011
9.671088833,0.0007446146337,0.0005204429617,-0.0008629591903,0.001253000556
9.681083833,0.001179947634,-0.004088002257,-0.00003230874427,0.004255006784
9.691077833,0.0004188161111,-0.0003997904714,0.002928060945,0.002984757989
9.701072833,0.0003515777644,0.00001431396231,0.001488690963,0.001529709972
9.711067833,-0.00165937515,-0.0003076621797,-0.00211137021,0.00270297356
9.721062833,0.00151014619,0.0001389416866,-0.0002631223761,0.001539181501
9.731056833,-0.0005194487749,0.0001165710855,-0.0008546104655,0.001006863891
9.741051833,-0.00005575106479,-0.001293703914,0.001366260462,0.00188240422
9.751046833,0.0006883360911,0.0008536028909,0.00118223601,0.001612490761
9.761040833,0.002755810739,-0.001408045646,0.001181715517,0.003312632931
9.771035833,-0.002733230591,-0.001051981002,-0.0003418788547,0.002948575019
9.781030833,0.00230334606,-0.002042238833,0.0003441919107,0.003097516844
9.791024833,0.0004300783621,-0.0001932061277,0.001580697484,0.001649515245
9.801019833,0.001892320113,0.0005790308351,0.001117703156,0.002272754378
9.811014833,-0.0008834926412,0.001066655619,-0.001312697539,0.0019082684
9.821008833,0.001404911513,0.002098665573,0.001969171222,0.00320246918
9.831003833,-0.001489145681,0.0004757352872,0.0002596878912,0.001584713452
9.840998833,0.001106191776,0.001138827763,-0.0007923356607,0.001774368823
9.850992833,-0.0009726716671,-0.001309948973,-0.0007467955584,0.001794368995
9.860987833,-0.0009956078138,-0.00008882558905,-0.0006446515326,0.001189411831
9.870982833,0.00002837763168,0.002377261641,0.00110957271,0.002623610069
9.880976833,0.0008073609788,0.001185609843,0.000492200139,0.001516497091
9.890971833,-0.00144514069,-0.0004365216009,0.002351619303,0.002794475992
9.900966833,0.0006627578987,0.002620120067,0.0006525717909,0.002780310619
9.910960833,0.0006273380714,-0.0004475752357,0.00110237964,0.001345034393
9.920955833,0.0003594702575,-0.002161241835,-0.0005823415704,0.002267003935
9.930950833,0.002573888749,0.00148675614,0.0003156763269,0.002989146811
9.940945833,0.001605256111,-0.0005454849452,-0.001499981154,0.002263701498
9.950939833,0.001691542449,0.001438836334,-0.0002309848787,0.002232693411
9.960934833,-0.0004964345135,-0.001634682994,0.0003677811474,0.001747540755
9.970929833,-0.0002724627266,0.0008345999522,0.002076731529,0.002254685535
9.980923833,0.001597078284,-0.00003948598169,-0.001391845755,0.002118832885
9.990918833,-0.0007124149706,0.001765338355,0.001454274403,0.002395593587
10.00091383,0.0006011419464,0.001001547789,0.001307001105,0.001752917996
10.01090783,0.001341766911,-0.001438174164,-0.0006501559401,0.002071566102
10.02090283,-0.001686987234,-0.0002448530868,0.000992588466,0.001972589878
10.03089783,-0.0004898962798,0.0006784648867,-0.0002857287182,0.0008842815546
10.04089183,0.0001855490264,0.002760285977,0.000005868729204,0.002766521563
10.05088683,0.0008129896596,0.00167265092,-0.00160614273,0.002457317187
10.06088183,0.0000702526886,0.00004321965389,-0.0007109167636,0.0007156857017
10.07087583,0.0018796043,0.001026458689,0.0006923027104,0.002250736059
10.08087083,0.0006965054199,0.0006757670781,-0.002791796345,0.002955656911
10.09086583,0.0004640114494,0.001234231982,-0.001683654962,0.002138534368
10.10085983,-0.0003994496074,-0.001055406407,0.001072514337,0.00155683322
10.11085483,-0.00257338793,0.00182640017,-0.0003794410732,0.003178370423
10.12084983,0.001722006244,0.0005626726197,-0.0003115920117,0.00183820444
10.13084483,-0.001146218274,-0.001131630503,0.000190147548,0.001621900125
10.14083883,-0.001027346589,-0.0006498044822,0.0004504087847,0.001296362199
10.15083383,0.001499993377,-0.001128374599,-0.0004702459555,0.001935029877
10.16082883,-0.001047579339,0.001270726207,0.0007933588931,0.001828000519
10.17082283,-0.0009003065643,-0.0009492849931,0.0008274473948,0.001548019089
10.18081783,0.00158831384,-0.004259579815,-0.00244061416,0.005159782799
10.19081283,0.0004644596484,-0.000005712499842,-0.0000930376118,0.0004737207984
10.20080683,0.0007891631685,-0.0009566736408,0.002371859737,0.00267651295
10.21080183,-0.0003549307585,0.0008074041689,-0.001149105607,0.001448558259
10.22079683,0.001421899884,-0.002941559069,-0.002164329402,0.003919042076
10.23079083,0.0008639675798,0.0008707561065,-0.000712107576,0.001418362921
10.24078583,-0.00008723873179,-0.0009760782123,-0.0008818387287,0.001318324245
10.25078083,-0.001228669658,0.002398147015,0.0009847708279,0.00286888686
10.26077483,0.001757158549,0.0006592447171,0.001071994309,0.00216133791
10.27076983,-0.0005874885246,-0.001288857544,-0.000611389929,0.001542755386
10.28076483,0.001123653841,0.0009029339999,-0.001049562008,0.001783106327
10.29075883,-0.0001115202904,-0.002260368783,-0.0003627326805,0.00229200323
10.30075383,0.0004974787589,-0.000267033698,0.001085822936,0.00122384785
10.31074883,-0.000834900653,0.0007135422202,-0.0007128760335,0.001309348632
10.32074383,0.00006882962771,0.0002803185489,-0.0007882046048,0.00083939413
10.33073783,0.001407867065,-0.00008160504512,0.000944980653,0.001697568111
10.34073283,0.00004769698717,0.0007110482547,-0.00171819923,0.001860127204
10.35072783,0.001028539147,-0.0003659341019,0.0004890286364,0.001196223036
10.36072183,0.0002351417206,0.001118906541,0.0005562717561,0.001271488003
10.37071683,-0.0002839083318,0.0004288814962,0.001067332341,0.001184796019
10.38071183,-0.001018156298,0.001191399177,0.00221105176,0.0027101336
10.39070583,0.0006686899578,-0.0004230090417,-0.001360247261,0.001573644026
10.40070083,0.000003978842869,0.00209420803,0.003236954566,0.003855333704
10.41069583,-0.0001821761252,-0.0007367322687,-0.000208376674,0.0007870091579
10.42068983,0.0006491011009,-0.0008448604494,-0.0008839998627,0.00138440499
10.43068483,-0.001278761309,0.001607644488,-0.001064828481,0.00231378715
10.44067983,-0.0003563154023,-0.00004188297316,0.001855691546,0.001890054486
10.45067383,-0.0002066456946,0.001133636222,-0.0006958831218,0.001346137752
10.46066883,0.0007530668518,-0.0003995057195,-0.0007691446226,0.00114817157
10.47066383,0.0006915478734,0.002667124383,-0.0003752631019,0.00278075769
10.48065883,-0.0002438529627,0.00182420481,0.0007722157752,0.001995871905
10.49065283,0.00126349635,-0.001278644195,0.00249128649,0.003072110411
10.50064783,-0.0006489142543,0.0003679643851,0.001573059824,0.00174097809
10.51064283,0.001122886781,0.001216181088,-0.001279185759,0.002091957783
10.52063683,0.0007129420992,-0.0009770058095,-0.003477363382,0.003681695652
10.53063183,0.001473540906,-0.002032949124,-0.0002386933193,0.002522137871
10.54062683,-0.001928993384,0.0008319694316,-0.000906575995,0.002288027239
10.55062083,0.0006801056443,0.001685246243,-0.001213105861,0.002184999867
10.56061583,0.001258347183,0.00138939044,0.001620881958,0.002478124644
10.57061083,0.001484982204,0.0001342426986,0.0009694728069,0.001778502395
10.58060483,-0.001562138787,-0.0009765166324,0.001022187178,0.002106829122
10.59059983,-0.00003055483103,0.0007630602922,-0.0004609272,0.0008919913066
10.60059483,-0.001731352997,-0.00130018685,0.003305781633,0.003951741546
10.61058883,0.000465488527,-0.001480749343,0.001351021463,0.00205780397
10.62058383,-0.0007758878637,0.0005997724365,-0.0004234841908,0.001068207757
10.63057883,0.0008912510239,-0.0008441936225,-0.000889004732,0.001515691484
10.64057383,0.0007495640311,0.0004107670393,-0.0004658253165,0.0009734315707
10.65056783,-0.0001716234256,-0.001490197377,-0.001183014596,0.001910409997
10.66056283,-0.001437857747,0.0006274039624,-0.000711837376,0.001722725481
10.67055783,0.002178182127,-0.0007704892196,0.001016554073,0.002524185651
10.68055183,0.000114073744,-0.001840407262,-0.0007811711403,0.002002583346
10.69054683,0.0009913190734,-0.0001226684544,-0.001010203036,0.00142065873
10.70054183,0.0004248076584,-0.001238240628,0.0002723954385,0.001337124031
10.71053583,0.0009350695182,0.0004350235686,-0.001772912336,0.002051053061
10.72053083,-0.0009117018199,-0.002434210852,0.0000596124446,0.002600026216
10.73052583,-0.0002773369197,-0.000737244729,0.0003008948406,0.0008431982344
10.74051983,-0.002680885606,-0.000647705514,0.002244361211,0.003555815983
10.75051483,0.002548763761,0.0003240818623,0.000007838476449,0.002569297026
10.76050983,0.001522591803,-0.001818645746,-0.0008322466165,0.002513641299
10.77050383,0.0005614571273,-0.0001280710567,0.001053271466,0.00120042371
10.78049883,-0.001247615321,0.001156251761,0.0008274478605,0.001891595117
10.79049383,0.001534855459,0.0004537098575,0.0004434200237,0.001660799576
10.80048883,-0.0005196918501,-0.001388718607,0.003312251298,0.00362899816
10.81048283,0.0003386449534,-0.001357825939,-0.0003538561868,0.001443463157
10.82047783,0.0003855575342,0.001725668903,-0.0008558259578,0.001964440338
10.83047283,-0.0007947554113,0.002556841588,0.0005372735905,0.002730885933
10.84046683,0.002642577281,-0.0009579167236,-0.001671367674,0.003270212384
10.85046183,0.0007027308457,-0.0001286084298,0.001226950553,0.00141978112
10.86045683,-0.001312282053,-0.001201817766,-0.001131204655,0.002108571578
10.87045083,-0.0004896315513,0.0002581272274,0.003234781325,0.003281795079
10.88044583,0.001317429822,-0.001377980225,-0.0000999228796,0.001909040444
10.89044083,0.001177613856,0.0007967570564,-0.002551362617,0.00292079568
10.90043483,0.0002404791303,-0.001503849868,0.0002141597215,0.001537939863
10.91042983,0.0007297019474,-0.0009509774391,0.0002695535077,0.00122860983
10.92042483,-0.001566348365,0.0004011061974,-0.002554353327,0.003023086882
10.93041883,0.0002637759317,0.0002895197831,0.001179132261,0.001242478304
10.94041383,0.001087802229,-0.001704130555,0.001709506498,0.002647600254
10.95040883,0.001080079004,0.001111629652,-0.00008173566312,0.001552086292
10.96040383,-0.000009512528777,-0.001185389701,0.001828515669,0.002179153227
10.97039783,-0.0003024602775,-0.001143578207,-0.0003387647448,0.001230453123
10.98039283,0.0002846959978,-0.0009119063616,0.000857591047,0.001283778574
10.99038783,-0.00005192751996,0.00006414228119,0.0002868756419,0.0002985101899
11.00038183,0.0002866454888,-0.002020651707,0.0008886931464,0.002225977194
11.01037683,0.0002624108456,0.0007117516361,0.00001437729225,0.0007587203371
11.02037183,-0.001556042815,-0.0003351345658,0.0009449128993,0.001851065857
11.03036583,0.001117770793,0.000004684785381,-0.001513717463,0.001881694463
11.04036083,-0.00130539434,0.00182914664,0.001849827822,0.002910617596
11.05035583,-0.002435639966,-0.0007831482217,-0.0006210530992,0.002632749539
11.06034983,0.002431817818,0.0001432516146,-0.001442397828,0.002831036987
11.07034483,-0.000659579644,-0.001920698211,-0.001020553173,0.002272807889
11.08033983,-0.001248823013,0.0001435074955,0.002126785228,0.002470499691
11.09033383,0.0001125850249,0.0002518983092,0.0001014511799,0.0002939736177
11.10032883,-0.0001430730335,-0.001361718634,-0.0006307602744,0.001507516519
11.11032383,-0.0002115163952,0.0001501578372,0.00169844029,0.001718134448
11.12031883,0.0003357720561,-0.001328902319,0.0005117367255,0.001463078509
11.13031283,0.0004995565396,0.00138272834,-0.001332768588,0.001984380636
11.14030783,0.000422128709,0.0003622933291,-0.00002966017928,0.0005570716556
11.15030283,-0.001124901464,-0.00040975702,0.0008742166683,0.001482416575
11.16029683,0.001971034333,-0.0006301375106,0.001077299239,0.00233294305
11.17029183,0.0008615613915,-0.0001180116087,-0.0007490966818,0.001147763307
11.18028683,-0.001127448049,-0.004422442056,0.003495693207,0.005748826301
11.19028083,0.0006022751331,-0.00132784876,-0.0003778745304,0.001506222702
11.20027583,-0.0007866355591,0.0009045558982,-0.0009345819708,0.001520019847
11.21027083,-0.001933658961,0.0003221225925,0.0005621145247,0.002039306912
11.22026483,-0.0005787899718,0.0005568529014,0.00004306214396,0.000804324147
11.23025983,0.00004359078594,0.001143813599,-0.0009918422438,0.001514582696
11.24025483,-0.0003255095799,0.0008466753643,-0.001166408765,0.001477607887
11.25024983,-0.0000615902245,0.001522851991,-0.0003187245457,0.001557066755
11.26024383,0.001130058663,-0.0001278202981,-0.001075696549,0.001565405276
11.2702385,0.0004248537589,0.0006687311688,0.000158412382,0.0008079582758
11.2802335,0.0008228681982,0.00125466811,0.0009621995268,0.00178245114
11.2902275,0.0001629369799,0.0007185738068,0.0002540649148,0.0007793880652
11.3002225,-0.0001302962191,0.0009061614983,0.000685033272,0.001143405593
11.3102175,-0.00142086402,0.00124704605,0.001895439927,0.002677063864
11.3202115,-0.0005125247408,-0.001444175839,0.001333970227,0.002031699297
11.3302065,-0.002689925255,-0.0002984839957,0.00110467209,0.002923198762
11.3402015,0.0008720373735,0.0005404418334,0.0007044195663,0.00124448121
11.3501955,-0.0002888345625,-0.0001115000341,0.001009617932,0.001056023689
11.3601905,-0.0002140478464,0.001892140484,-0.001156544895,0.00222791566
11.3701855,-0.002429265296,0.0006929190131,0.001714342739,0.003052939185
11.3801795,-0.001542716986,-0.0005690967664,0.000683004153,0.001780545282
11.3901745,-0.0006681348896,-0.0008212979883,-0.0004413823481,0.001147062768
11.4001695,0.002216032241,-0.00208479329,-0.00110382936,0.003236603344
11.4101645,0.0008687390946,0.0001575881615,0.002049886156,0.002231944196
11.4201585,-0.001262889011,0.001071498729,-0.0001090202713,0.001659784203
11.4301535,-0.0008652789984,0.00002008280717,-0.002523442032,0.002667746381
11.4401485,-0.0004685266176,-0.002204262652,-0.001362784067,0.002633528326
11.4501425,0.0009416171815,0.002254667692,0.0008471071487,0.002586070347
11.4601375,-0.0002777692862,0.000442141667,-0.0009862969164,0.001115986845
11.4701325,-0.0006671234732,0.00061737746,0.001949571772,0.002151055264
11.4801265,0.0009859539568,0.0006677245256,0.0006184116937,0.001341787714
11.4901215,-0.00003962940536,0.0007769140648,-0.0001451164717,0.0007913436322
11.5001165,-0.0004410963738,-0.00005073403008,0.001400770387,0.001469454875
11.5101115,-0.001363082789,0.0005767066032,0.001586925238,0.002170003896
11.5201055,0.000582046574,-0.0007498369087,-0.0001666059252,0.0009637381066
11.5301005,-0.0009154488798,0.0001340662129,0.0001620281255,0.0009392941576
11.5400955,-0.0001051680883,0.0004909229465,-0.001043876167,0.001158336358
11.5500895,-0.0008292815182,0.0008043771377,0.002684815787,0.002922835306
11.5600845,0.001715384424,0.0006921868771,-0.0009007267654,0.002057419525
11.5700795,0.0003012458328,0.0001542284153,-0.001069571241,0.001121836929
11.5800735,0.0005031384062,-0.0004310067743,0.001168764429,0.001343475116
11.5900685,-0.0005677187582,0.001585805207,0.003295565024,0.003701058169
11.6000635,0.001133688958,0.001707093557,-0.002592997625,0.003305004653
11.6100575,-0.0003795190714,0.00114916137,0.0005127808545,0.001314363262
11.6200525,-0.001582050929,-0.001712198835,-0.0004639411927,0.002376920575
11.6300475,0.0002946786117,0.001879872638,0.0002758849878,0.001922724407
11.6400415,-0.0006682281382,0.0006025291514,-0.0003468377981,0.000964295951
11.6500365,-0.003489580937,0.0002957328688,-0.0009119606111,0.003618881761
11.6600315,0.001806550892,-0.0006153706927,0.00109183602,0.002198729886
11.6700265,-0.001217734884,-0.001939494628,-0.001498088124,0.002736564578
11.6800205,0.002150560729,0.0003536632285,-0.0005397311179,0.002245283681
11.6900155,-0.003813322168,0.00104741659,0.0008395201294,0.004042684939
11.7000105,0.0009597975295,-0.002785448451,-0.001280683442,0.003212488824
11.7100045,-0.0004831030965,0.000001549487934,-0.0008615018451,0.0009877127274
11.7199995,-0.0001617560629,-0.00180892623,0.000520129106,0.001889156801
11.7299945,0.0002409138251,0.002017503837,-0.001147542382,0.002333498387
11.7399885,-0.001151606208,-0.001392102102,0.0003237456549,0.001835471702
11.7499835,-0.0001502577215,0.0003940800671,0.000907510519,0.001000725649
11.7599785,0.001836087205,0.0009016564582,0.0008758676704,0.00222516174
11.7699725,0.001094929525,-0.00153726642,-0.001438419218,0.002372995693
11.7799675,0.001034674351,0.0006208175328,0.0001978147775,0.001222741227
11.7899625,-0.0002593556419,-0.003111602738,0.0005900983233,0.003177664706
11.7999575,-0.002154617105,0.00009078159928,-0.0007152096368,0.002272034549
11.8099515,0.0001096024644,0.0006678884383,-0.001219346072,0.00139459403
11.8199465,0.0006363027496,0.002701391466,-0.001388860052,0.0031034383
11.8299415,0.0006746522849,-0.000793208601,0.0007270214846,0.001269998358
11.8399355,-0.0002700578189,0.001620746683,0.0001070807921,0.00164657746
11.8499305,-0.0001302418532,-0.0004149735905,0.002052519936,0.002098095353
11.8599255,0.0002190857194,0.0003655478358,0.0006959930761,0.0008161066932
11.8699195,-0.00007572607137,0.002029224532,-0.00142095366,0.002478426102
11.8799145,0.00003565778024,-0.002204404911,0.0002088976325,0.002214567838
11.8899095,0.001470302697,-0.0007354053669,0.001681093127,0.002351315626
11.8999035,0.002345405286,-0.002956137527,0.0003028550418,0.003785683057
11.9098985,-0.001788353315,0.0008111699717,0.00170554209,0.002600976379
11.9198935,0.00235120696,-0.0007718519773,0.001586327329,0.002939449615
11.9298885,0.0001397181768,0.001669734134,-0.001336225774,0.002143136152
11.9398825,0.001053747488,-0.0003647073172,-0.001526457141,0.0018903615
11.9498775,0.002548579825,0.001398571534,-0.0002414819319,0.002917117581
11.9598725,0.00377622107,-0.0005119752605,-0.001200640108,0.003995435009
11.9698665,-0.001180987107,0.0003572804853,0.00004971411545,0.001234848729
11.9798615,0.0003105106298,0.0002160971053,-0.001301346347,0.001355218478
11.9898565,0.000940880971,0.002048352035,0.001733592013,0.002843649825
11.9998505,0.00145244936,0.001827221946,0.0001267336775,0.002337607881
12.0098455,-0.0009233566234,-0.0004108985886,-0.001534812502,0.001837681833
12.0198405,-0.001438491512,0.0001229215413,0.000462911441,0.001516131438
12.0298345,0.00009442388546,-0.00006376602687,-0.0002819747897,0.000304124577
12.0398295,0.0008400216466,0.0006260061637,-0.001405631425,0.001753088642
12.0498245,0.001910612569,0.00007233512588,0.003066082019,0.003613382309
12.0598195,0.0015095009,-0.001059061149,0.002068785019,0.002771294813
12.0698135,0.0007712724619,0.0007438987959,-0.001060162904,0.001507379186
12.0798085,0.002648483496,0.0006205411628,0.002395195654,0.003624430767
12.0898035,0.001723567606,0.001701784437,0.003567252774,0.004311849709
12.0997975,0.0007727557095,0.001717911917,0.0009559969185,0.002112416353
12.1097925,0.00004384841304,-0.0001542903483,0.001767462003,0.001774725367
12.1197875,-0.0003757439554,-0.0001232980285,0.001358061796,0.001414467308
12.1297815,-0.0008231550455,0.0002197171561,0.0009934750851,0.001308759948
12.1397765,0.0005777985789,-0.0007011995185,0.0006579812616,0.001121816074
12.1497715,0.00004010624252,0.0007049497217,0.0001333385007,0.0007185692566
12.1597665,0.0001741631422,0.001003688085,0.0001171091571,0.001025396083
12.1697605,-0.0008013529005,-0.00101365638,-0.00007090996951,0.001294099668
12.1797555,0.0003166695824,0.0003790727351,-0.001397143234,0.001481885617
12.1897505,-0.0005504556466,0.001343936077,0.000465738005,0.00152514835
12.1997445,-0.001462309505,-0.0007677320391,0.001823628671,0.002460362392
12.2097395,-0.002601876156,0.002921278821,0.0008441180689,0.00400202009
12.2197345,-0.0004993338371,0.0009695087792,-0.001351942657,0.001736960133
12.2297285,0.0003235829063,-0.00274347025,-0.0002659055172,0.002775255061
12.2397235,0.0001179265091,-0.0006121248007,-0.0007762978785,0.0009956112842
12.2497185,0.001280928846,-0.0003961424809,-0.0009190433193,0.001625530127
12.2597125,-0.001458246959,-0.00004636798985,0.0006061523454,0.001579890772
12.26970746,-0.001094192849,-0.0004096231423,-0.001455933321,0.001866759477
12.27970246,0.0007650756743,-0.001739365282,-0.0004384064232,0.00195011091
12.28969746,0.0005680017639,-0.0004354817793,-0.0003353420179,0.000790395251
12.29969146,0.0004374807468,0.00003449502401,0.003383516334,0.003411856107
12.30968646,-0.0002059389371,-0.0009745766874,-0.001660777023,0.001936592597
12.31968146,-0.0005126189208,0.001430448843,-0.0008240841562,0.001728605434
12.32967546,0.002708208049,0.000729238498,0.0009426567703,0.002958847987
12.33967046,0.0005256985314,0.00003830320202,0.0003375940723,0.0006259359703
12.34966546,-0.00184824341,0.00155124499,0.001221763552,0.002704638774
12.35965946,0.0002558138222,0.001175656682,0.001558240619,0.001968685646
12.36965446,-0.0007966674166,0.001411879086,-0.001781629631,0.002408793405
12.37964946,-0.0009595272131,-0.00162641285,-0.0002771826694,0.001908596726
12.38964346,0.00002903817222,0.001208788482,0.0006357488455,0.001366085431
12.39963846,-0.001220349339,-0.0004495303147,0.001562903519,0.002033223407
12.40963346,0.001513385447,0.0009725977434,-0.0003170219716,0.00182668684
12.41962846,0.0004630384501,0.002146511804,-0.002874355298,0.003617158541
12.42962246,-0.0004376426805,0.0001510053407,-0.002204303863,0.002252396334
12.43961746,-0.0005722572096,0.001705440227,-0.0003140484914,0.001826097242
12.44961246,0.001326842932,0.001409563003,0.00044308824,0.001985876938
12.45960646,-0.001190529671,0.001092382707,0.000824652845,0.001814032301
12.46960146,-0.0001524295658,0.001533402246,0.002849188168,0.00323920213
12.47959646,-0.0001164352288,0.001784779015,0.0001192429336,0.001792543492
12.48959046,-0.0003292218316,0.003329412546,0.001736846869,0.003769616952
12.49958546,0.0005221080501,0.0003683422692,-0.0003715427592,0.0007391325085
12.50958046,0.0004352889955,-0.0003267428838,0.001432482502,0.001532397971
12.51957546,-0.001065523713,0.001328190789,-0.001087578712,0.002020460098
12.52956946,0.002188326325,0.001337778172,0.0008165814215,0.002691696075
12.53956446,-0.0003491347888,0.0005515476223,-0.00131026085,0.00146385907
12.54955946,0.001954499632,-0.000189343933,-0.002168064937,0.002925136836
12.55955346,0.0006481392775,-0.001636832487,-0.00004499673378,0.001761059289
12.56954846,0.001677184599,0.002542465925,0.000007733819075,0.003045839945
12.57954346,-0.0004754925612,-0.0002394656185,-0.001775463345,0.001853566035
12.58953746,0.001534128794,0.000233245315,0.000770252198,0.001732409589
12.59953246,-0.001076439628,-0.0002842808608,0.001101135276,0.001565898074
12.60952746,-0.0005384810502,-0.002072860021,-0.0007391091203,0.002265610911
12.61952146,-0.0004436076852,0.00108707347,0.0001671478385,0.001185940516
12.62951646,-0.001325113932,-0.001840007026,-0.0004112907918,0.002304498406
12.63951146,-0.001361218514,0.0007884274237,0.0002921153791,0.001599957824
12.64950646,-0.002221685834,-0.00146220997,-0.001395529835,0.003003572783
12.65950046,-0.002550991252,-0.0003826527391,0.001914940542,0.003212627704
12.66949546,-0.00004469021223,-0.001517159399,-0.00166381523,0.002252121439
12.67949046,-0.001990384888,0.00130050641,-0.0002939661499,0.002395697189
12.68948446,0.0004456085153,-0.001644949894,0.0001808754168,0.001713809505
12.69947946,-0.001843013917,0.00002807029523,0.0008524985751,0.002030823001
12.70947446,-0.0007287473418,-0.0001205340959,0.001105498872,0.001329559668
12.71946846,-0.001412157668,-0.0009885958862,-0.000287753297,0.00174765931
12.72946346,0.0008294249419,0.00007294025272,-0.001361273578,0.001595722962
12.73945846,-0.0005739434855,0.000443658093,0.00169473805,0.001843469741
12.74945346,0.0001749373041,0.0005632340908,0.0009599718032,0.001126668347
12.75944746,-0.002821270609,0.000944471918,0.0009096377762,0.003111114903
12.76944246,0.0002216573339,-0.0008180080913,0.0003242749954,0.0009074268476
12.77943746,-0.0007043007063,0.001525190775,-0.0009224206442,0.001916534954
12.78943146,0.0009628380649,-0.000267382944,-0.001361842267,0.001689131475
12.79942646,-0.001990200486,-0.00009348010644,0.002107169013,0.00289996513
12.80942146,0.0008015912026,0.0003086572979,0.0005769167328,0.001034722523
12.81941546,-0.001474966411,-0.0004681067076,-0.0006906844792,0.001694607581
12.82941046,-0.000418490381,-0.001022843178,0.002139989519,0.002408505244
12.83940546,-0.003571621142,0.0001110311132,0.0002053171629,0.003579240231
12.84939946,-0.0009028674103,0.001463384251,-0.002818702254,0.00330177913
12.85939446,-0.0008066443261,0.003812268842,0.0008945035515,0.003998025187
12.86938946,-0.00009531399701,-0.001470377436,0.001798912999,0.002325334931
12.87938446,-0.003389947116,-0.001021501375,-0.0004130012821,0.003564516317
12.88937846,-0.001299631898,0.0004288561177,0.0005238987505,0.00146541139
12.89937346,0.0005162199959,-0.001154246042,0.00189223804,0.002275814538
12.90936846,-0.0014792867,-0.001561975805,0.001180907828,0.002454098787
12.91936246,0.001473841723,0.001513917698,-0.001323536504,0.002493171694
12.92935746,-0.003016780363,0.001011645538,0.00027063163,0.003193373128
12.93935246,0.0001399414614,0.0003966498189,0.002721838187,0.002754145568
12.94934646,-0.002939471509,0.001637949143,-0.000477949623,0.003398794785
12.95934146,-0.001855410519,0.0008554864908,-0.001890103333,0.00278332462
12.96933646,-0.0007872165879,-0.001170646399,-0.00140061439,0.00198792445
12.97933146,0.000572842313,0.0003515821882,-0.0007910296554,0.001038020359
12.98932546,0.0001952059101,0.001862925943,-0.001137240557,0.00219132711
12.99932046,-0.001140378416,-0.001434756443,-0.001602195087,0.002434341405
13.00931546,-0.002552652732,0.0007407795638,0.002496942412,0.003646849564
13.01930946,0.00226460048,-0.00198289752,-0.0007759393193,0.003108436864
13.02930446,-0.001980744535,-0.0002182871103,0.00108374597,0.002268370231
13.03929946,-0.002488925355,0.0001804982312,-0.0002662638435,0.002509626559
13.04929346,-0.001888915198,-0.0002599887084,-0.00139278092,0.002361235576
13.05928846,-0.0003405855969,-0.000999285141,-0.001226527849,0.001618313909
13.06928346,-0.0006058365107,-0.0003990086261,-0.001369006932,0.00154933074
13.07927746,0.001227147644,0.001255407929,-0.0006422253209,0.001869329766
13.08927246,-0.001836819109,0.0009744444396,0.0000640450744,0.002080275985
13.09926746,-0.001622741343,-0.003229574068,-0.00005038629752,0.003614689047
13.10926246,-0.001199565013,-0.002731296932,-0.00161952083,0.003394375771
13.11925646,-0.001757093705,0.0003465416376,-0.00145861879,0.002309770155
13.12925146,0.00003441469744,-0.001640442759,-0.0002628593938,0.001661725572
13.13924646,-0.001194356009,-0.001657447545,0.001874048496,0.002772305251
13.14924046,0.000219249865,-0.0009157571476,-0.0006953692646,0.001170563997
13.15923546,0.0001698285341,0.0002241395414,-0.0005285712541,0.000598721835
13.16923046,-0.002085868735,-0.000601972919,-0.0007046062383,0.002282474474
13.17922446,0.0007057697512,0.0007820788305,-0.00102986861,0.001473223538
13.18921946,-0.00259468588,-0.002000658074,0.001460985979,0.003587409592
13.19921446,0.0002198992297,-0.001050088555,0.001335451263,0.001713029982
13.20920946,-0.002097849734,0.00002050213516,-0.001858744072,0.002802913372
13.21920346,0.0001388185192,-0.001456178259,-0.0003251039889,0.001498471991
13.22919846,-0.002218345413,0.001465309295,-0.001356279943,0.002984574171
13.23919346,0.001776823308,0.001141979592,-0.001809430309,0.00278123291
13.24918746,-0.001921242103,-0.00196672813,-0.001467746682,0.003116644202
13.25918246,-0.003153853118,-0.0004675823729,-0.001687084208,0.003607170067
13.26918196,0.0002704395447,0.0008325728122,-0.0008077084203,0.001191095264
13.27917596,-0.000546925352,-0.00003592320718,-0.0002420314122,0.000599163602
13.28917096,-0.001201264095,0.001520960592,-0.00248388038,0.003150558409
13.29916596,0.001701129018,-0.0008708003443,0.0007062230725,0.002037371887
13.30916096,0.001507517067,0.0001742241438,-0.001416582614,0.002075974003
13.31915496,-0.0002267360687,-0.001051984029,-0.002283083741,0.002523995049
13.32914996,0.002757868264,-0.0008522467688,0.003266411368,0.004359083062
13.33914496,0.001947498415,-0.001906784251,0.0005319737829,0.002776971797
13.34913896,0.001891039312,0.001727631548,-0.0003721694229,0.002588291043
13.35913396,0.001338608796,-0.0002687221859,-0.0009421181167,0.001658816345
13.36912896,-0.002277697437,-0.001028255792,-0.000998577103,0.002691165513
13.37912296,0.002584770089,-0.001121964771,0.000559930806,0.002872866838
13.38911796,-0.000502632698,-0.001767248847,-0.002614557277,0.003195577862
13.39911296,0.002938080346,-0.001826124964,-0.002091394039,0.004042397498
13.40910796,0.001170007745,0.00252201804,-0.0006982944906,0.002866549897
13.41910196,0.00265519158,0.0003936421126,-0.000185727491,0.002690630249
13.42909696,0.00149485236,0.001070884056,-0.0001449811971,0.001844558427
13.43909196,-0.002372868126,0.0008127969922,-0.0001588809537,0.002513241981
13.44908596,0.0002266434021,-0.001667138422,-0.00269101467,0.003173685193
13.45908096,0.000939891208,0.0004609732423,-0.002767348662,0.002958734599
13.46907596,0.000181955751,0.0006628409028,0.002254840219,0.002357280292
13.47906996,-0.0007377059665,0.0008652521065,-0.0006597246975,0.001314575208
13.48906496,0.00103808986,0.0002242291812,-0.001385169802,0.001745452567
13.49905996,-0.001336061861,-0.0001953255851,0.0002133970847,0.001367022932
13.50905496,0.0003795465454,-0.001220642589,-0.0007551946328,0.001484702948
13.51904896,0.001026780345,-0.002143016551,-0.0002272527199,0.002387140886
13.52904396,-0.00003182620276,-0.0003227461129,0.0004880724009,0.0005859971238
13.53903896,0.00386636192,-0.0004127286375,0.001791724004,0.004281281856
13.54903296,-0.0006863118615,-0.000139488373,0.00003110815305,0.0007010340182
13.55902796,0.002672158182,-0.0001071835868,0.00007094268221,0.002675247752
13.56902296,0.0008199295262,-0.001763936132,-0.001480348641,0.002444419605
13.57901696,0.002696454991,0.001707298332,0.0004200141411,0.0032190292
13.58901196,0.002305769362,-0.001026436454,0.0002178802388,0.002533301392
13.59900696,0.00110622833,0.001658300986,0.001319630304,0.002390633267
13.60900196,-0.0005081797717,-0.001017909497,0.001207244815,0.001658863005
13.61899596,0.001596499234,0.001191242831,-0.0005903228885,0.002077582826
13.62899096,0.0006896927953,0.0002463532146,-0.0007634283393,0.00105791724
13.63898596,0.00309901638,-0.001024552621,0.001113062841,0.003448553245
13.64897996,0.002050796058,0.0002223392949,-0.0005346349208,0.002130970139
13.65897496,0.0009589638794,0.0009324556449,0.0008101715939,0.001563797705
13.66896996,0.002839155495,0.00306085404,0.0004610312171,0.004200259654
13.67896396,0.004335628822,0.001029476523,0.00009860075079,0.004457266125
13.68895896,0.002048506401,-0.0002938481048,-0.00007237424143,0.002070739775
13.69895396,0.003407404292,-0.002031242941,0.0009400846902,0.004076777051
13.70894896,0.001408169512,-0.0006666390691,-0.00008310179692,0.0015602099
13.71894296,0.0006620091153,0.0008561398135,0.001972541213,0.002249922284
13.72893796,0.002836746629,0.0001735717524,-0.00134176272,0.003142862674
13.73893296,0.002525238786,-0.001035210211,-0.0002095536329,0.002737225572
13.74892696,0.001126280287,-0.002154270653,-0.0003957085428,0.00246291993
13.75892196,0.001673931605,-0.001842323691,-0.0006239436916,0.002566224723
13.76891696,0.0003756404622,0.002441637218,-0.001333409804,0.002807254845
13.77891096,0.002288254909,-0.0008646035567,0.00240992778,0.003433861055
13.78890596,0.001681586844,-0.001143702772,-0.001653523417,0.002621055138
13.79890096,-0.001915229484,0.0005960597191,0.002211554209,0.002985693083
13.80889596,0.0002451266628,-0.001016750699,0.001718070591,0.002011376548
13.81888996,0.0007490460994,0.0001968098804,-0.0004343978362,0.0008879784165
13.82888496,0.00002439983655,-0.0004535340704,0.003350486513,0.003381131228
13.83887996,0.0007682126015,0.003011206863,0.0005110298516,0.003149391828
13.84887396,-0.001347935176,-0.0004269341007,0.001114235958,0.001800201027
13.85886896,0.0007300446741,0.0008029814344,-0.003439279739,0.003606437235
13.86886396,0.002376144519,0.00195799442,0.00009713193867,0.003080460929
13.87885796,0.002168215811,0.0005948867183,0.001585855731,0.002751361192
13.88885296,0.001384447562,0.0008340387139,0.00316431094,0.003553192839
13.89884796,0.001499184291,0.005338148214,-0.0003115322907,0.005553416269
13.90884296,0.001148978597,0.003063009819,0.0008160499856,0.003371664062
13.91883696,0.003734207712,0.001195614459,-0.001453921432,0.004181828392
13.92883196,0.001541360863,0.003006031504,-0.001532484661,0.00370951856
13.93882696,0.0009337041993,0.001387633849,0.0003525177017,0.001709268838
13.94882096,0.001394697232,0.0006075939164,0.000112034264,0.001525418766
13.95881596,0.001196776982,0.0003267826978,0.0005508433096,0.00135738367
13.96881096,-0.001652006409,0.0009145423537,-0.0006670202129,0.002002605517
13.97880596,-0.0001351922983,0.001813521609,0.001764748362,0.002534062818
13.98879996,0.0007031708956,0.002147748368,0.0007503501838,0.002381238703
13.99879496,-0.001356195891,0.0007091524312,-0.000004956964403,0.001530421196
14.00878996,-0.001836896525,0.0006718682125,0.00146936893,0.002446352548
14.01878396,0.001366727287,0.000809134217,0.002663094085,0.003100759868
14.02877896,0.001709209988,0.001577189774,-0.0008442890248,0.002474217113
14.03877396,0.0004803093616,-0.0003040207084,-0.001181917381,0.001311508433
14.04876796,0.001861158293,0.0003724223934,0.001499885926,0.002419145804
14.05876296,0.00003358989488,0.00002611451782,-0.001479731756,0.001480343311
14.06875796,0.0008916603401,0.001726542949,-0.0003244525287,0.001970095977
14.07875296,0.001084074611,0.00294108456,0.0008745279629,0.003254227298
14.08874696,-0.0002280647168,0.001705377828,0.00007557973731,0.001722219309
14.09874196,0.002165731043,0.0002991729416,-0.0001259197015,0.002189920357
14.10873696,-0.00001886021346,0.0001311274245,0.0003337418893,0.0003590734713
14.11873096,0.004670100752,-0.001057735179,0.0001031585271,0.004789497513
14.12872596,-0.0000005509937182,-0.0001685055904,0.001334604109,0.001345199823
14.13872096,0.002192808548,0.001713194884,-0.0008619247237,0.002913135814
14.14871496,0.002825575648,0.000580818858,-0.0009372922359,0.003033108146
14.15870996,-0.001163406414,0.0003152433783,-0.003471512347,0.003674818479
14.16870496,-0.0002278379397,-0.002054703888,0.0006651758449,0.002171676103
14.17869996,0.000903203385,0.0007034977898,0.0003531611292,0.001198085255
14.18869396,0.001582309371,-0.001022496959,0.0001651420025,0.001891157016
14.19868896,0.001623118878,-0.00002675130963,-0.001589422347,0.002271892146
14.20868396,-0.0001031421125,-0.001186025329,0.0003688000143,0.001246317707
14.21867796,0.002119307639,0.0005643367767,0.0004693153314,0.002242810234
14.22867296,-0.001095660264,0.001390715595,-0.0006619954947,0.001890184995
14.23866796,0.001232453738,-0.00149734877,-0.0006273019244,0.002038259861
14.24866196,0.0003173915902,-0.002017730381,-0.00161613361,0.002604584642
14.25865696,0.002485176316,-0.0009643372614,0.0007234096993,0.002762131291
14.26864833,0.001714457292,0.0003424759489,-0.0001445144881,0.001754291315
14.27864333,0.002549400553,-0.0004041162319,0.0000651703449,0.002582053501
14.28863733,0.000335514429,0.002267566975,-0.000143088866,0.002296715991
14.29863233,0.00166165852,0.0000439346768,-0.001641094568,0.002335857589
14.30862733,-0.0003192008007,-0.00004102033563,-0.002621138003,0.002640821131
14.31862133,0.001460339408,0.003035815433,0.001314228983,0.003616070291
14.32861633,0.0004664475564,0.0005146008916,-0.002012059093,0.002128560357
14.33861133,0.002388883149,-0.002019867534,0.0001496850746,0.003131937607
14.34860633,-0.001127554569,0.0004568721633,0.001126266317,0.001657886395
14.35860033,-0.0007621304831,-0.0003192164004,-0.001733942656,0.00192075483
14.36859533,0.001308743609,-0.001050520455,-0.0001437691972,0.001684361198
14.37859033,0.002010101918,0.002701739082,0.002849463373,0.004411274794
14.38858433,-0.0008551930077,0.001909715007,-0.0004113109899,0.002132496945
14.39857933,-0.000144663034,0.0008992744843,0.00001428008545,0.0009109478099
14.40857433,0.002665237989,-0.001282386947,-0.001250455156,0.003211175473
14.41856833,0.003936683293,0.00134126842,-0.0008898105007,0.004253027046
14.42856333,-0.001121192239,-0.000634530792,-0.00007887801621,0.001290706436
14.43855833,0.0003059706651,-0.002224319382,-0.001797060366,0.002875872166
14.44855333,-0.001187529997,-0.001915392699,-0.001616764348,0.00277360481
14.45854733,-0.001260606805,-0.001170607051,0.0008436450735,0.001916034288
14.46854233,0.001516005024,0.001779376296,-0.0001233487856,0.002340868676
14.47853733,-0.0003194799647,-0.001034942223,0.0007216043305,0.001301493627
14.48853133,-0.00361088058,0.001757115708,0.002319234656,0.004637322887
14.49852633,-0.001221584389,0.001746690366,0.00054745737,0.00220066018
14.50852133,-0.001131569501,-0.0009108781815,-0.001039254013,0.001786112399
14.51851633,0.0004634700017,-0.0005800107028,0.001317897346,0.001512636861
14.52851033,-0.004175223876,0.0004754000111,0.0009668928105,0.004312004324
14.53850533,0.001382696442,-0.0008574842941,0.0005593991373,0.001720481375
14.54850033,-0.001220543636,0.002366538625,0.001574329915,0.003093339056
14.55849433,-0.0004399751779,0.000166478334,0.002099249046,0.00215131117
14.56848933,-0.002068231814,-0.00114672631,-0.0009814955993,0.002560448726
14.57848433,-0.002656831872,0.0005217118887,-0.00003179942723,0.002707757392
14.58847833,-0.0007295021787,0.00006071873941,0.001075010397,0.001300579697
14.59847333,0.0003892796813,0.0002419671509,-0.00003839598503,0.0004599576329
14.60846833,-0.000216056942,0.0001040154602,-0.002347090282,0.002359307654
14.61846333,-0.003472769167,-0.0008830502629,-0.0005424062256,0.003624100988
14.62845733,0.002298300853,-0.0006774542853,0.00102406519,0.002605732264
14.63845233,0.002775345696,0.002970654285,-0.000001057051122,0.004065382114
14.64844733,0.002674412215,0.0002518331166,-0.001152075245,0.002922871531
14.65844133,0.000979822129,0.0008651273092,-0.0006659953506,0.001466985505
14.66843633,0.00001016515307,0.0004997416399,-0.0005999489804,0.0007808865578
14.67843133,0.0006087329239,-0.001053651795,0.001112460159,0.001648728444
14.68842633,0.0002532009967,0.001192458207,-0.0002737151226,0.001249394769
14.69842033,-0.0008823480457,0.001188742463,0.001115022693,0.001853354343
14.70841533,-0.0007718268316,0.001008446445,0.00005348667037,0.001271039619
14.71841033,0.0003767646849,0.0003309228923,-0.0002012642799,0.000540341465
14.72840433,-0.001348697348,0.0001245280728,0.0004397586454,0.001424036321
14.73839933,-0.0008691913681,-0.0007539310027,-0.00001649186015,0.001150729148
14.74839433,-0.001133909682,0.00009455205873,-0.001290015527,0.001720125379
14.75838833,-0.002478101524,-0.001942110015,0.000413950067,0.003175552413
14.76838333,-0.0002021640539,0.0008430236485,0.0005644187331,0.001034469759
14.77837833,-0.001233111718,-0.0008719053585,-0.001940531307,0.002458952056
14.78837333,-0.001288771862,0.0005169331562,0.003186319955,0.003475742749
14.79836733,-0.00247290032,-0.0008023788687,-0.0001587133156,0.002604656937
14.80836233,0.001860861899,0.001035202178,0.0001297070412,0.002133371621
14.81835733,-0.00004799081944,-0.002141489182,-0.0004274373059,0.002184257696
14.82835133,0.0002095368691,-0.001138808904,0.001707885298,0.002063410674
14.83834633,-0.001577335643,0.0003578066826,-0.0004265839816,0.001672718519
14.84834133,0.002163073979,0.0004914974561,-0.0001727846684,0.002224929961
14.85833633,-0.001477663172,-0.0007390363608,0.00296200579,0.003391628148
14.86833033,-0.0008004212286,-0.001036777627,-0.002296672203,0.002643914748
14.87832533,-0.0002244709758,-0.0002947188914,-0.003271835856,0.003292742977
14.88832033,0.0002692791168,-0.001381022157,0.0007636522641,0.001600905438
14.89831433,0.001459032064,-0.0003228448331,0.0006906766212,0.001646219167
14.90830933,0.0004275897518,-0.0001739740837,-0.0006070818054,0.0007626587022
14.91830433,-0.001062101219,-0.00166872656,0.0009789818432,0.002207059759
14.92829833,-0.002195542678,0.0009994945722,0.0002870925236,0.002429366001
14.93829333,-0.0006654291647,-0.0002818349749,0.001081255265,0.001300515234
14.94828833,0.001068022335,0.0003314909991,0.001302031102,0.001716345822
14.95828333,0.0001712946687,-0.001269805711,0.001163772424,0.001730928843
14.96827733,-0.0001405616058,0.001209330978,-0.001617366681,0.002024379895
14.97827233,-0.001290117623,0.003615220543,0.0007088738494,0.003903424803
14.98826733,0.00131125818,0.001673509832,0.0002840997186,0.002144934923
14.99826133,-0.0009325114079,-0.0005839155056,0.001356212888,0.001746381471
15.00825633,0.001280575525,-0.0002720593475,-0.0008922939887,0.001584322734
15.01825133,0.00009727990255,0.001707277494,-0.0005862786202,0.001807756189
15.02824633,0.0002514768858,0.0002944704611,-0.001492818701,0.001542226038
15.03824033,0.00003884430043,0.002282598056,-0.00002375408076,0.002283052128
15.04823533,0.001990941586,0.0005936214002,-0.001367052435,0.002486979518
15.05823033,-0.0009639710188,-0.002018317347,-0.0006944764755,0.002342038133
15.06822433,0.00121982093,-0.001608723309,-0.0002294884762,0.002031900279
15.07821933,0.001093551517,-0.002992922207,-0.0006171054556,0.003245652077
15.08821433,0.003688535653,-0.001383307856,0.0007325845072,0.004006933484
15.09820833,-0.000824369723,-0.000261839712,-0.0006970773102,0.001110883545
15.10820333,0.003439883702,0.00002365116961,-0.00007256597746,0.003440730312
15.11819833,0.0007605843712,0.0005219551967,0.0001637015957,0.0009368692681
15.12819333,-0.001202165382,0.00156511541,0.0004087124253,0.002015399141
15.13818733,-0.001831177738,0.0002968222834,0.00004555413034,0.001855637507
15.14818233,-0.001307067694,0.0001772462856,0.00193320273,0.002340323695
15.15817733,-0.001373213017,-0.001320057781,-0.00228387583,0.00297394609
15.16817133,-0.0001135377679,-0.001154409023,-0.00007744692266,0.001162561415
15.17816633,-0.0002773990855,0.001714266371,-0.001542789163,0.002322898587
15.18816133,-0.0004393192939,-0.0003267803695,0.002372856718,0.002435207559
15.19815633,-0.001448651543,0.003320713528,-0.0005629988736,0.00366642842
15.20815033,0.0005577739794,-0.001280430006,-0.001588315936,0.002115031991
15.21814533,-0.0009111069376,-0.0003134391736,-0.0004291430232,0.001054762391
15.22814033,-0.001356653869,-0.0001882708166,0.002819913439,0.00313494297
15.23813433,0.000732736662,0.0003472067183,-0.001331041101,0.001558565345
15.24812933,0.001300256234,0.0007544041146,-0.001980053261,0.002486041584
15.25812433,-0.0000829808414,0.0003146633971,0.0005367870908,0.000627725461
15.26812612,0.002037161961,0.00007338100113,0.002241210081,0.003029593414
15.27812113,-0.0005735240411,0.0006919178413,-0.002493014792,0.002650057146
15.28811613,-0.0002997511765,-0.001352324616,-0.0001539604273,0.001393677311
15.29811113,-0.0002280963818,-0.00232859957,0.00127016101,0.002662275889
15.30810513,0.001731990138,-0.001627389342,-0.002236423083,0.003263399165
15.31810013,-0.001751311356,-0.002880437765,0.0001674498199,0.003375211494
15.32809513,-0.0003315801732,0.0004194850335,0.001374927,0.001475241458
15.33808912,0.001482375432,-0.001362141222,0.003432278056,0.00397912029
15.34808413,-0.0008433631156,0.0005963473814,0.0001086532138,0.00103860342
15.35807913,0.0002003370319,-0.0009135212749,-0.001649887301,0.001896518956
15.36807413,0.0001217736863,-0.002432055771,0.0007088744314,0.002536183563
15.37806812,0.0006626988761,0.00001305504702,-0.002422547899,0.002511588851
15.38806313,0.0004863976501,-0.001284703379,0.0008243781049,0.001602075125
15.39805813,-0.00009441142902,-0.001422791509,0.0005444798153,0.001526337926
15.40805213,-0.00009654206224,-0.0009527436923,0.001006538281,0.001389302064
15.41804712,0.0001628224272,0.00001774937846,0.0005047167651,0.0005306271726
15.42804213,-0.00008138944395,-0.0003726698924,0.0009361488046,0.001010881632
15.43803713,0.0006777597591,0.0002430721652,-0.0004995163181,0.0008763326541
15.44803113,0.001418118598,0.001536036842,-0.0009711621678,0.002305130255
15.45802612,0.00008140248246,-0.0007659965195,-0.002298149746,0.002423812964
15.46802113,-0.0002826517448,0.001537105069,0.000349564827,0.001601492919
15.47801513,-0.001270157984,-0.0005403603427,-0.0009318668745,0.001665432819
15.48801013,-0.0002459061798,0.001864207909,0.001876436523,0.002656455345
15.49800513,-0.002716134069,0.001508856192,0.002063947963,0.003730135719
15.50800013,-0.000721959048,-0.000133781461,-0.0007387626683,0.001041581791
15.51799413,0.0001337109134,-0.0004506886471,-0.001623866265,0.001690544442
15.52798912,-0.0001890643034,0.001331232372,-0.0009162643692,0.001627103356
15.53798413,-0.0007735724794,-0.00242774887,-0.0004222551361,0.002582765641
15.54797813,0.0004490849096,0.001825053012,-0.001306690974,0.00228909088
15.55797313,-0.0004178592935,-0.0005452823825,-0.0005685050273,0.0008917046776
15.56796812,-0.0002290412085,-0.00004913541488,0.0002128664637,0.0003165221881
15.57796213,-0.002008513315,-0.0003844741732,0.0002049277537,0.002055222983
15.58795713,-0.001640464412,-0.001017507631,0.0009263781831,0.002141172997
15.59795213,0.000555239385,0.0003092973493,0.0009097112343,0.001109743283
15.60794712,-0.001163032022,-0.00004037586041,0.0006212908775,0.001319195228
15.61794113,-0.001982664457,0.0005086699966,-0.001491818577,0.002532829678
15.62793613,-0.0003874311224,0.0008511524647,-0.002187170088,0.002378713179
15.63793113,-0.001460594358,-0.000350178685,0.0004837572342,0.001577967697
15.64792513,-0.0009284948464,-0.0008308792021,-0.001837187679,0.002219847179
15.65792013,0.0001996753272,0.001587950625,0.002134363633,0.002667764146
15.66791513,0.0002824997064,0.001231087139,0.001311180531,0.001820597708
15.67791012,-0.0002278389875,0.001773290685,0.0006061273161,0.001887819054
15.68790413,-0.002431871137,-0.002125577303,-0.001638384885,0.003621654474
15.69789913,0.0000539526809,-0.001119267195,0.0009259593207,0.001453640468
15.70789413,-0.004649456125,-0.0002095312811,0.002135300543,0.005120630237
15.71788812,0.001395147527,0.0002965817694,-0.0009266418638,0.0017009005
15.72788313,0.00007129018195,0.000300043961,0.002373014577,0.002392970299
15.73787813,-0.0004104365362,0.0002833404578,0.0001330053201,0.0005161689456
15.74787313,-0.0004429271212,0.00200773729,0.001646479825,0.002634025299
15.75786712,0.0005034648348,0.00009978818707,-0.001609078608,0.001688954851
15.76786213,-0.0002507423051,-0.0010701383,0.000204534037,0.001117990097
15.77785713,0.0004492376465,0.0003510606475,0.0005465837894,0.0007898176246
15.78785113,-0.0003161547938,-0.0005850405432,-0.0003200088395,0.0007379918348
15.79784613,-0.0009351550834,-0.001815632917,-0.00004202662967,0.002042744271
15.80784113,0.00001612608321,0.001064575976,0.0004410707625,0.001152443264
15.81783613,-0.000196168432,-0.0004882924259,-0.0007630545879,0.0009269109186
15.82783012,-0.001468893141,-0.0009700581431,0.0006830417551,0.001888175283
15.83782513,-0.001550007612,-0.0003847517073,0.00002925330773,0.00159731438
15.84782013,0.0001490891445,-0.002639650134,-0.0009561162442,0.002811430006
15.85781413,0.00006725615822,-0.000640604645,-0.001621248317,0.001744518216
15.86780912,0.000154341571,-0.00009918399155,-0.001059853937,0.001075615709
15.87780413,0.002377687488,-0.001196596073,0.00138789718,0.003001915811
15.88779813,0.001493251882,-0.0001611590851,0.001741565065,0.002299743967
15.89779313,-0.001256632153,0.0006713841576,-0.0003190098796,0.001460016561
15.90778812,-0.0012044342,0.001098288805,0.001723102177,0.002371915082
15.91778313,-0.0003658403875,-0.0003476957791,-0.001504087821,0.001586509286
15.92777713,0.00005866750143,-0.0002496913075,-0.002760833595,0.002772722446
15.93777213,-0.002869350836,0.0003576984163,0.002078487538,0.003561071864
15.94776712,-0.002616350539,-0.002585094888,0.0006518323207,0.00373535689
15.95776213,-0.0002990721259,0.001439390937,0.002158506773,0.002611597576
15.96775613,0.001349957194,0.0004556193016,-0.001104398048,0.001802683673
15.97775112,0.001509654103,0.002527829725,0.001182778622,0.003173002348
15.98774613,-0.001629413804,-0.0005704918876,-0.0006151213893,0.00183270965
15.99774013,-0.001371136401,-0.001710896613,0.001034408575,0.002424290278
16.00773513,-0.001304557314,-0.0005747920368,0.0001156181097,0.001430252851
16.01773012,0.0000799195841,-0.00368267973,0.0003839634592,0.003703504431
16.02772413,0.001505509717,-0.0002706379164,-0.002583064139,0.003002003454
16.03771913,0.001897011185,-0.00003787176684,0.002209637547,0.002912487561
16.04771413,0.001416576793,0.001132587669,-0.0001059811329,0.001816776442
16.05770912,0.0005953032523,-0.001629590988,-0.001633786829,0.002383109765
16.06770313,0.002492272761,0.001805354143,0.0004775671987,0.003114289248
